participant, trial, stimulus, response, rt
10, 1, X, x, 0.785
10, 4, X, x, 0.735
10, 11, X, w, 0.45
10, 13, X, x, 0.535
10, 16, X, x, 0.735
10, 18, X, x, 0.62
10, 26, X, x, 0.735
10, 29, X, x, 0.735
10, 31, X, x, 0.62
10, 36, X, w, 0.45
10, 40, X, x, 0.735
10, 41, X, w, 0.298
10, 45, X, w, 0.45
10, 47, X, w, 0.45
10, 50, X, x, 0.735
10, 54, X, w, 0.2
10, 56, X, x, 0.735
10, 57, X, w, 0.29
10, 58, X, x, 0.62
10, 62, X, x, 0.735
10, 65, X, x, 0.735
10, 69, X, x, 0.735
10, 71, X, x, 0.62
10, 76, X, w, 0.2
10, 78, X, w, 0.2
10, 79, X, x, 0.535
10, 82, X, w, 0.45
10, 83, X, x, 0.535
10, 90, X, w, 0.45
10, 91, X, w, 0.2
10, 93, X, w, 0.45
10, 94, X, x, 0.535
10, 97, X, w, 0.45
10, 99, X, w, 0.45
10, 100, X, x, 0.535
10, 106, X, x, 0.735
10, 111, X, x, 0.735
10, 113, X, x, 0.62
10, 123, X, x, 0.735
10, 125, X, w, 0.2
10, 130, X, w, 0.2
10, 134, X, w, 0.2
10, 137, X, x, 0.535
10, 139, X, w, 0.45
10, 141, X, w, 0.45
10, 144, X, x, 0.535
10, 146, X, x, 0.62
10, 147, X, x, 0.57
10, 152, X, x, 0.735
10, 153, X, w, 0.297
10, 155, X, w, 0.2
10, 157, X, w, 0.45
10, 163, X, w, 0.45
10, 166, X, x, 0.735
10, 167, X, w, 0.296
10, 168, X, w, 0.2
10, 171, X, w, 0.45
10, 179, X, w, 0.2
10, 191, X, w, 0.45
10, 192, X, x, 0.535
10, 193, X, w, 0.25
10, 194, X, w, 0.2
10, 195, X, w, 0.2
10, 197, X, x, 0.535
10, 198, X, x, 0.57
10, 202, X, w, 0.2
10, 206, X, w, 0.2
10, 207, X, w, 0.2
10, 208, X, x, 0.536
10, 215, X, x, 0.735
10, 216, X, w, 0.294
10, 217, X, w, 0.2
10, 218, X, w, 0.2
10, 219, X, x, 0.62
10, 225, X, x, 0.735
10, 226, X, w, 0.298
10, 228, X, w, 0.45
10, 233, X, x, 0.535
10, 235, X, x, 0.62
10, 237, X, w, 0.45
10, 239, X, x, 0.536
10, 241, X, w, 0.2
10, 244, X, w, 0.45
10, 246, X, w, 0.45
10, 252, X, x, 0.735
10, 255, X, x, 0.735
10, 260, X, w, 0.45
10, 264, X, w, 0.2
10, 269, X, x, 0.535
10, 272, X, w, 0.45
10, 278, X, w, 0.2
10, 284, X, w, 0.45
10, 285, X, w, 0.2
10, 287, X, w, 0.2
10, 289, X, w, 0.2
10, 294, X, w, 0.45
10, 295, X, x, 0.535
10, 297, X, w, 0.2
10, 300, X, x, 0.735
10, 310, X, w, 0.45
10, 311, X, x, 0.535
10, 312, X, x, 0.57
10, 316, X, w, 0.45
10, 319, X, w, 0.45
10, 324, X, x, 0.735
10, 328, X, x, 0.62
10, 333, X, x, 0.62
10, 336, X, w, 0.2
10, 338, X, w, 0.2
10, 342, X, w, 0.2
10, 344, X, w, 0.45
10, 346, X, w, 0.2
10, 350, X, w, 0.2
10, 352, X, x, 0.535
10, 358, X, w, 0.2
10, 359, X, x, 0.535
10, 363, X, w, 0.2
10, 364, X, x, 0.62
10, 367, X, w, 0.2
10, 369, X, w, 0.2
10, 370, X, x, 0.62
10, 376, X, x, 0.62
10, 377, X, w, 0.25
10, 379, X, w, 0.2
10, 387, X, w, 0.45
10, 388, X, w, 0.2
10, 395, X, x, 0.535
10, 396, X, x, 0.57
10, 397, X, w, 0.25
10, 400, X, w, 0.2
10, 409, X, x, 0.535
10, 410, X, w, 0.25
10, 411, X, x, 0.62
10, 413, X, w, 0.45
10, 416, X, w, 0.2
10, 417, X, w, 0.2
10, 421, X, w, 0.2
10, 422, X, w, 0.2
10, 424, X, w, 0.2
10, 426, X, x, 0.735
10, 428, X, w, 0.2
10, 429, X, x, 0.621
10, 432, X, w, 0.2
10, 434, X, x, 0.735
10, 437, X, w, 0.2
10, 438, X, x, 0.62
10, 442, X, w, 0.2
10, 445, X, w, 0.2
10, 448, X, w, 0.2
10, 450, X, w, 0.45
10, 454, X, w, 0.2
10, 456, X, x, 0.735
10, 458, X, x, 0.62
10, 460, X, w, 0.45
10, 463, X, w, 0.2
10, 464, X, w, 0.2
10, 466, X, x, 0.735
10, 467, X, w, 0.296
10, 469, X, w, 0.45
10, 472, X, w, 0.45
10, 476, X, w, 0.2
10, 480, X, w, 0.2
10, 481, X, w, 0.2
10, 484, X, w, 0.45
10, 485, X, w, 0.2
10, 491, X, x, 0.535
10, 495, X, x, 0.535
10, 496, X, w, 0.25
10, 499, X, w, 0.2
10, 501, X, w, 0.2
10, 503, X, w, 0.2
10, 509, X, w, 0.2
10, 512, X, w, 0.2
10, 514, X, w, 0.2
10, 515, X, w, 0.2
10, 517, X, x, 0.735
10, 518, X, w, 0.297
10, 519, X, x, 0.62
10, 523, X, w, 0.2
10, 526, X, w, 0.2
10, 527, X, w, 0.2
10, 531, X, x, 0.535
10, 534, X, w, 0.2
10, 536, X, w, 0.45
10, 538, X, w, 0.45
10, 540, X, w, 0.2
10, 543, X, w, 0.45
10, 547, X, w, 0.45
10, 550, X, w, 0.45
10, 551, X, w, 0.2
10, 552, X, x, 0.535
10, 553, X, w, 0.25
10, 555, X, w, 0.2
10, 557, X, w, 0.2
10, 561, X, x, 0.62
10, 563, X, x, 0.62
10, 567, X, w, 0.2
10, 569, X, w, 0.2
10, 571, X, x, 0.735
10, 575, X, w, 0.2
10, 577, X, w, 0.45
10, 578, X, w, 0.2
10, 579, X, x, 0.536
10, 580, X, x, 0.57
10, 582, X, w, 0.2
10, 587, X, x, 0.535
10, 592, X, w, 0.2
10, 594, X, x, 0.62
10, 600, X, w, 0.45
10, 607, X, x, 0.735
10, 609, X, x, 0.621
10, 610, X, w, 0.25
10, 613, X, w, 0.2
10, 614, X, x, 0.535
10, 615, X, w, 0.25
10, 617, X, w, 0.2
10, 619, X, w, 0.2
10, 623, X, w, 0.45
10, 624, X, w, 0.2
10, 626, X, x, 0.735
10, 631, X, w, 0.2
10, 632, X, w, 0.2
10, 637, X, x, 0.535
10, 643, X, w, 0.2
10, 650, X, w, 0.2
10, 651, X, x, 0.535
10, 652, X, w, 0.25
10, 655, X, w, 0.2
10, 666, X, x, 0.735
10, 667, X, w, 0.297
10, 672, X, w, 0.2
10, 674, X, x, 0.535
10, 675, X, w, 0.25
10, 680, X, w, 0.45
10, 685, X, x, 0.535
10, 686, X, x, 0.57
10, 687, X, x, 0.57
10, 689, X, x, 0.57
10, 691, X, w, 0.2
10, 692, X, x, 0.62
10, 697, X, w, 0.45
10, 698, X, w, 0.2
10, 699, X, x, 0.535
10, 701, X, x, 0.62
10, 704, X, w, 0.45
10, 708, X, w, 0.2
10, 717, X, w, 0.2
10, 720, X, w, 0.2
10, 722, X, w, 0.2
10, 727, X, w, 0.2
10, 728, X, w, 0.2
10, 730, X, w, 0.45
10, 733, X, w, 0.2
10, 734, X, w, 0.2
10, 737, X, x, 0.736
10, 739, X, x, 0.62
10, 740, X, w, 0.25
10, 745, X, x, 0.537
10, 747, X, x, 0.736
10, 749, X, w, 0.2
10, 750, X, w, 0.2
10, 755, X, w, 0.2
10, 757, X, x, 0.535
10, 759, X, x, 0.62
10, 761, X, w, 0.2
10, 763, X, w, 0.45
10, 770, X, w, 0.2
10, 773, X, x, 0.535
10, 777, X, w, 0.2
10, 780, X, w, 0.2
10, 781, X, w, 0.2
10, 782, X, w, 0.2
10, 787, X, x, 0.735
10, 788, X, w, 0.296
10, 791, X, w, 0.45
10, 793, X, w, 0.2
10, 794, X, w, 0.2
10, 809, X, x, 0.735
10, 811, X, w, 0.2
10, 815, X, w, 0.2
10, 816, X, x, 0.62
10, 818, X, x, 0.62
10, 821, X, w, 0.2
10, 823, X, w, 0.2
10, 825, X, x, 0.62
10, 829, X, x, 0.62
10, 835, X, w, 0.2
10, 840, X, w, 0.45
10, 843, X, w, 0.2
10, 851, X, w, 0.2
10, 853, X, w, 0.45
10, 857, X, w, 0.45
10, 858, X, w, 0.2
10, 861, X, w, 0.45
10, 865, X, x, 0.535
10, 867, X, w, 0.2
10, 870, X, w, 0.45
10, 871, X, x, 0.535
10, 876, X, x, 0.535
10, 879, X, w, 0.2
10, 882, X, w, 0.45
10, 883, X, x, 0.535
10, 884, X, w, 0.25
10, 887, X, w, 0.2
10, 890, X, w, 0.2
10, 891, X, x, 0.535
10, 893, X, x, 0.62
10, 895, X, w, 0.2
10, 901, X, x, 0.535
10, 903, X, x, 0.62
10, 907, X, w, 0.2
10, 910, X, w, 0.2
10, 912, X, w, 0.2
10, 916, X, w, 0.2
10, 921, X, w, 0.2
10, 923, X, w, 0.2
10, 926, X, w, 0.2
10, 929, X, w, 0.2
10, 930, X, w, 0.2
10, 935, X, w, 0.45
10, 936, X, w, 0.2
10, 938, X, w, 0.2
10, 939, X, x, 0.535
10, 940, X, x, 0.57
10, 942, X, w, 0.45
10, 947, X, x, 0.535
10, 950, X, x, 0.735
10, 951, X, w, 0.292
10, 953, X, x, 0.735
10, 955, X, x, 0.62
10, 962, X, w, 0.2
10, 967, X, w, 0.2
10, 972, X, x, 0.735
10, 976, X, w, 0.2
10, 977, X, w, 0.2
10, 980, X, w, 0.45
10, 982, X, x, 0.535
10, 983, X, w, 0.25
10, 986, X, w, 0.45
10, 991, X, w, 0.2
10, 995, X, w, 0.2
10, 997, X, w, 0.45
10, 1001, X, w, 0.2
10, 1004, X, w, 0.2
10, 1006, X, x, 0.735
10, 1008, X, x, 0.62
10, 1012, X, x, 0.735
10, 1013, X, w, 0.295
10, 1015, X, w, 0.45
10, 1016, X, w, 0.2
10, 1017, X, w, 0.2
10, 1027, X, x, 0.735
10, 1028, X, w, 0.298
10, 1030, X, w, 0.2
10, 1032, X, w, 0.2
10, 1033, X, w, 0.2
10, 1034, X, w, 0.2
10, 1039, X, w, 0.2
10, 1040, X, w, 0.2
10, 1043, X, w, 0.2
10, 1046, X, x, 0.736
10, 1049, X, x, 0.62
10, 1064, X, w, 0.45
10, 1065, X, w, 0.2
10, 1066, X, x, 0.535
10, 1067, X, x, 0.57
10, 1068, X, w, 0.25
10, 1071, X, w, 0.2
10, 1075, X, w, 0.2
10, 1081, X, x, 0.535
10, 1083, X, w, 0.2
10, 1090, X, w, 0.2
10, 1097, X, w, 0.2
10, 1098, X, x, 0.536
10, 1100, X, w, 0.2
10, 1107, X, w, 0.2
10, 1110, X, w, 0.2
10, 1111, X, x, 0.535
10, 1112, X, x, 0.57
10, 1114, X, w, 0.2
10, 1122, X, w, 0.2
10, 1127, X, w, 0.2
10, 1128, X, w, 0.2
10, 1131, X, x, 0.536
10, 1134, X, w, 0.2
10, 1141, X, w, 0.45
10, 1143, X, w, 0.2
10, 1146, X, w, 0.2
10, 1148, X, w, 0.2
10, 1158, X, w, 0.45
10, 1160, X, w, 0.2
10, 1164, X, w, 0.2
10, 1166, X, w, 0.45
10, 1167, X, w, 0.2
10, 1169, X, w, 0.2
10, 1171, X, w, 0.2
10, 1172, X, w, 0.2
10, 1178, X, w, 0.2
10, 1179, X, w, 0.2
10, 1182, X, x, 0.535
10, 1183, X, x, 0.571
10, 1184, X, w, 0.25
10, 1188, X, x, 0.62
10, 1191, X, x, 0.535
10, 1192, X, w, 0.25
10, 1194, X, x, 0.62
10, 1196, X, w, 0.2
10, 1199, X, w, 0.45
10, 1201, X, w, 0.45
10, 1202, X, w, 0.2
10, 1204, X, x, 0.535
10, 1205, X, w, 0.25
10, 1207, X, w, 0.2
10, 1210, X, x, 0.735
10, 1217, X, w, 0.2
10, 1218, X, w, 0.2
10, 1219, X, w, 0.2
10, 1224, X, w, 0.2
10, 1228, X, w, 0.45
10, 1230, X, w, 0.45
10, 1232, X, w, 0.2
10, 1233, X, w, 0.2
10, 1235, X, w, 0.2
10, 1236, X, w, 0.2
10, 1240, X, x, 0.535
10, 1242, X, w, 0.2
10, 1247, X, w, 0.2
10, 1249, X, w, 0.2
10, 1250, X, x, 0.535
10, 1255, X, w, 0.2
10, 1256, X, w, 0.2
10, 1257, X, x, 0.535
10, 1258, X, w, 0.25
10, 1260, X, x, 0.62
10, 1261, X, w, 0.25
10, 1263, X, w, 0.2
10, 1266, X, x, 0.535
10, 1268, X, x, 0.735
10, 1271, X, x, 0.62
10, 1273, X, w, 0.2
10, 1276, X, w, 0.45
10, 1281, X, w, 0.2
10, 1282, X, w, 0.2
10, 1284, X, w, 0.45
10, 1286, X, x, 0.535
10, 1291, X, w, 0.2
10, 1292, X, w, 0.2
10, 1295, X, w, 0.2
10, 1296, X, w, 0.2
10, 1302, X, w, 0.2
10, 1303, X, x, 0.535
10, 1304, X, w, 0.25
10, 1305, X, w, 0.2
10, 1309, X, x, 0.536
10, 1310, X, w, 0.25
10, 1318, X, w, 0.45
10, 1323, X, w, 0.2
10, 1326, X, w, 0.45
10, 1327, X, w, 0.2
10, 1329, X, w, 0.2
10, 1335, X, w, 0.2
10, 1336, X, x, 0.535
10, 1341, X, w, 0.2
10, 1342, X, w, 0.2
10, 1343, X, w, 0.2
10, 1344, X, w, 0.2
10, 1349, X, w, 0.45
10, 1354, X, w, 0.2
10, 1356, X, w, 0.2
10, 1357, X, x, 0.535
10, 1358, X, w, 0.25
10, 1360, X, w, 0.2
10, 1361, X, w, 0.2
10, 1362, X, x, 0.62
10, 1367, X, x, 0.62
10, 1369, X, x, 0.62
10, 1371, X, w, 0.25
10, 1372, X, w, 0.2
10, 1374, X, x, 0.62
10, 1377, X, x, 0.735
