participant, trial, stimulus, response, rt
27, 1, X, x, 0.785
27, 7, X, x, 0.735
27, 8, X, x, 0.57
27, 10, X, w, 0.45
27, 13, X, w, 0.45
27, 17, X, x, 0.735
27, 18, X, w, 0.292
27, 21, X, x, 0.735
27, 28, X, w, 0.2
27, 30, X, x, 0.535
27, 34, X, w, 0.45
27, 35, X, x, 0.535
27, 36, X, x, 0.57
27, 39, X, w, 0.2
27, 43, X, w, 0.45
27, 44, X, x, 0.535
27, 47, X, x, 0.62
27, 50, X, w, 0.2
27, 52, X, w, 0.45
27, 59, X, w, 0.2
27, 60, X, x, 0.535
27, 62, X, x, 0.735
27, 73, X, w, 0.45
27, 74, X, x, 0.535
27, 77, X, x, 0.62
27, 85, X, x, 0.535
27, 91, X, x, 0.735
27, 93, X, x, 0.62
27, 94, X, x, 0.57
27, 95, X, x, 0.57
27, 96, X, w, 0.25
27, 98, X, w, 0.2
27, 104, X, w, 0.2
27, 105, X, x, 0.535
27, 108, X, w, 0.2
27, 110, X, w, 0.2
27, 116, X, x, 0.621
27, 117, X, w, 0.25
27, 120, X, w, 0.2
27, 122, X, x, 0.535
27, 124, X, x, 0.735
27, 125, X, w, 0.298
27, 127, X, x, 0.62
27, 134, X, w, 0.45
27, 135, X, x, 0.535
27, 136, X, x, 0.57
27, 137, X, x, 0.57
27, 140, X, w, 0.2
27, 141, X, w, 0.2
27, 145, X, w, 0.2
27, 148, X, w, 0.45
27, 150, X, x, 0.735
27, 151, X, w, 0.3
27, 162, X, w, 0.45
27, 163, X, w, 0.2
27, 166, X, x, 0.62
27, 170, X, w, 0.45
27, 175, X, w, 0.45
27, 177, X, x, 0.535
27, 180, X, w, 0.2
27, 182, X, x, 0.62
27, 184, X, x, 0.62
27, 186, X, x, 0.62
27, 187, X, w, 0.25
27, 190, X, w, 0.2
27, 191, X, x, 0.62
27, 193, X, x, 0.62
27, 195, X, x, 0.735
27, 205, X, w, 0.45
27, 206, X, x, 0.535
27, 218, X, x, 0.735
27, 219, X, w, 0.3
27, 220, X, w, 0.2
27, 221, X, x, 0.62
27, 224, X, x, 0.535
27, 228, X, w, 0.2
27, 230, X, w, 0.45
27, 231, X, w, 0.2
27, 235, X, w, 0.2
27, 237, X, x, 0.535
27, 241, X, x, 0.735
27, 243, X, w, 0.2
27, 246, X, x, 0.62
27, 251, X, w, 0.45
27, 252, X, w, 0.2
27, 253, X, x, 0.535
27, 254, X, w, 0.25
27, 258, X, x, 0.535
27, 259, X, w, 0.25
27, 260, X, w, 0.2
27, 261, X, w, 0.2
27, 268, X, w, 0.2
27, 271, X, w, 0.45
27, 273, X, x, 0.535
27, 274, X, x, 0.57
27, 278, X, x, 0.535
27, 283, X, w, 0.45
27, 286, X, w, 0.45
27, 287, X, x, 0.535
27, 288, X, x, 0.57
27, 294, X, w, 0.2
27, 308, X, w, 0.2
27, 314, X, w, 0.45
27, 315, X, w, 0.2
27, 317, X, w, 0.2
27, 327, X, w, 0.2
27, 330, X, w, 0.2
27, 331, X, x, 0.535
27, 332, X, x, 0.57
27, 335, X, x, 0.62
27, 336, X, w, 0.25
27, 337, X, x, 0.62
27, 339, X, w, 0.2
27, 344, X, w, 0.2
27, 347, X, w, 0.45
27, 348, X, x, 0.535
27, 349, X, w, 0.25
27, 351, X, w, 0.45
27, 357, X, x, 0.535
27, 358, X, x, 0.57
27, 359, X, x, 0.57
27, 361, X, x, 0.485
27, 362, X, x, 0.57
27, 363, X, w, 0.25
27, 365, X, w, 0.2
27, 367, X, w, 0.2
27, 370, X, x, 0.62
27, 374, X, x, 0.535
27, 378, X, w, 0.2
27, 382, X, w, 0.45
27, 384, X, x, 0.535
27, 386, X, x, 0.735
27, 388, X, w, 0.2
27, 390, X, w, 0.45
27, 402, X, w, 0.45
27, 404, X, w, 0.2
27, 405, X, w, 0.2
27, 406, X, w, 0.2
27, 407, X, w, 0.2
27, 410, X, w, 0.2
27, 412, X, w, 0.45
27, 417, X, w, 0.2
27, 420, X, x, 0.535
27, 423, X, w, 0.2
27, 425, X, w, 0.2
27, 427, X, x, 0.62
27, 428, X, w, 0.25
27, 430, X, w, 0.2
27, 431, X, w, 0.2
27, 432, X, x, 0.62
27, 433, X, w, 0.25
27, 434, X, x, 0.62
27, 438, X, x, 0.535
27, 444, X, x, 0.535
27, 445, X, w, 0.25
27, 449, X, w, 0.2
27, 452, X, w, 0.2
27, 453, X, w, 0.2
27, 457, X, w, 0.2
27, 459, X, x, 0.535
27, 463, X, x, 0.735
27, 464, X, w, 0.293
27, 465, X, w, 0.2
27, 469, X, w, 0.2
27, 481, X, x, 0.535
27, 485, X, w, 0.2
27, 490, X, w, 0.2
27, 493, X, w, 0.2
27, 495, X, x, 0.735
27, 496, X, w, 0.298
27, 498, X, w, 0.2
27, 499, X, w, 0.2
27, 500, X, w, 0.2
27, 503, X, w, 0.2
27, 504, X, x, 0.62
27, 506, X, x, 0.735
27, 507, X, w, 0.298
27, 508, X, w, 0.2
27, 509, X, w, 0.2
27, 514, X, w, 0.2
27, 516, X, w, 0.45
27, 521, X, w, 0.2
27, 524, X, x, 0.537
27, 525, X, w, 0.25
27, 527, X, w, 0.2
27, 529, X, w, 0.2
27, 532, X, w, 0.45
27, 536, X, w, 0.2
27, 540, X, x, 0.535
27, 541, X, w, 0.25
27, 549, X, w, 0.2
27, 552, X, x, 0.535
27, 557, X, x, 0.735
27, 558, X, w, 0.294
27, 559, X, x, 0.62
27, 561, X, w, 0.2
27, 567, X, x, 0.535
27, 571, X, w, 0.2
27, 580, X, w, 0.2
27, 583, X, w, 0.2
27, 584, X, w, 0.2
27, 597, X, w, 0.2
27, 599, X, w, 0.2
27, 601, X, w, 0.2
27, 602, X, x, 0.535
27, 603, X, w, 0.25
27, 604, X, w, 0.2
27, 605, X, w, 0.2
27, 607, X, w, 0.2
27, 616, X, w, 0.2
27, 618, X, w, 0.2
27, 623, X, x, 0.535
27, 630, X, w, 0.45
27, 633, X, x, 0.735
27, 636, X, w, 0.2
27, 640, X, x, 0.735
27, 642, X, w, 0.2
27, 646, X, w, 0.2
27, 648, X, x, 0.621
27, 650, X, w, 0.45
27, 651, X, x, 0.535
27, 652, X, w, 0.25
27, 658, X, w, 0.45
27, 673, X, w, 0.2
27, 675, X, w, 0.45
27, 680, X, w, 0.2
27, 682, X, w, 0.2
27, 685, X, w, 0.45
27, 691, X, w, 0.2
27, 692, X, w, 0.2
27, 694, X, w, 0.45
27, 695, X, x, 0.535
27, 696, X, w, 0.25
27, 701, X, x, 0.62
27, 702, X, x, 0.571
27, 706, X, w, 0.2
27, 711, X, w, 0.45
27, 713, X, w, 0.2
27, 714, X, w, 0.2
27, 715, X, w, 0.2
27, 720, X, x, 0.735
27, 723, X, w, 0.2
27, 725, X, x, 0.62
27, 726, X, w, 0.25
27, 727, X, x, 0.621
27, 732, X, w, 0.2
27, 733, X, w, 0.2
27, 737, X, w, 0.45
27, 738, X, w, 0.2
27, 741, X, x, 0.535
27, 742, X, w, 0.25
27, 743, X, x, 0.62
27, 746, X, x, 0.535
27, 748, X, w, 0.2
27, 752, X, w, 0.45
27, 753, X, w, 0.2
27, 758, X, x, 0.735
27, 759, X, w, 0.294
27, 763, X, x, 0.535
27, 764, X, w, 0.25
27, 766, X, w, 0.45
27, 776, X, x, 0.535
27, 777, X, x, 0.57
27, 778, X, w, 0.25
27, 788, X, x, 0.735
27, 791, X, x, 0.62
27, 792, X, w, 0.25
27, 793, X, w, 0.2
27, 794, X, x, 0.62
27, 797, X, x, 0.735
27, 799, X, w, 0.2
27, 800, X, w, 0.2
27, 801, X, w, 0.2
27, 803, X, x, 0.735
27, 805, X, w, 0.2
27, 809, X, w, 0.2
27, 810, X, w, 0.2
27, 813, X, w, 0.2
27, 818, X, w, 0.2
27, 826, X, w, 0.2
27, 828, X, w, 0.2
27, 831, X, w, 0.2
27, 833, X, x, 0.62
27, 836, X, w, 0.2
27, 841, X, w, 0.2
27, 844, X, w, 0.2
27, 845, X, w, 0.2
27, 851, X, w, 0.2
27, 854, X, w, 0.2
27, 856, X, w, 0.45
27, 858, X, w, 0.45
27, 862, X, x, 0.535
27, 863, X, w, 0.25
27, 865, X, w, 0.2
27, 866, X, w, 0.2
27, 869, X, w, 0.2
27, 875, X, w, 0.45
27, 876, X, w, 0.2
27, 883, X, w, 0.2
27, 888, X, x, 0.535
27, 890, X, w, 0.2
27, 893, X, w, 0.45
27, 894, X, w, 0.2
27, 901, X, w, 0.2
27, 905, X, w, 0.2
27, 907, X, w, 0.45
27, 909, X, x, 0.735
27, 913, X, w, 0.2
27, 914, X, x, 0.62
27, 916, X, x, 0.62
27, 917, X, x, 0.57
27, 919, X, w, 0.2
27, 923, X, w, 0.2
27, 926, X, w, 0.2
27, 931, X, x, 0.535
27, 937, X, x, 0.535
27, 938, X, w, 0.25
27, 939, X, x, 0.62
27, 941, X, w, 0.2
27, 943, X, x, 0.62
27, 946, X, x, 0.535
27, 947, X, w, 0.25
27, 950, X, w, 0.2
27, 951, X, w, 0.2
27, 952, X, w, 0.2
27, 957, X, w, 0.2
27, 960, X, w, 0.2
27, 962, X, w, 0.2
27, 964, X, x, 0.535
27, 966, X, w, 0.2
27, 969, X, w, 0.2
27, 970, X, x, 0.62
27, 973, X, x, 0.62
27, 974, X, x, 0.57
27, 975, X, w, 0.25
27, 977, X, x, 0.62
27, 981, X, x, 0.735
27, 985, X, x, 0.62
27, 986, X, w, 0.25
27, 987, X, w, 0.2
27, 990, X, w, 0.2
27, 996, X, w, 0.2
27, 997, X, w, 0.2
27, 1001, X, w, 0.2
27, 1003, X, x, 0.536
27, 1005, X, w, 0.2
27, 1006, X, x, 0.62
27, 1008, X, x, 0.62
27, 1012, X, w, 0.2
27, 1013, X, w, 0.2
27, 1016, X, w, 0.45
27, 1019, X, x, 0.535
27, 1020, X, w, 0.25
27, 1024, X, w, 0.2
27, 1025, X, w, 0.2
27, 1027, X, w, 0.2
27, 1030, X, w, 0.45
27, 1031, X, x, 0.535
27, 1032, X, w, 0.25
27, 1033, X, w, 0.2
27, 1035, X, x, 0.62
27, 1038, X, x, 0.62
27, 1039, X, x, 0.57
27, 1040, X, x, 0.57
27, 1046, X, x, 0.62
27, 1048, X, w, 0.2
27, 1049, X, x, 0.62
27, 1050, X, x, 0.57
27, 1051, X, w, 0.25
27, 1054, X, w, 0.2
27, 1066, X, x, 0.535
27, 1067, X, w, 0.25
27, 1069, X, w, 0.2
27, 1072, X, w, 0.2
27, 1076, X, w, 0.2
27, 1077, X, w, 0.2
27, 1079, X, w, 0.2
27, 1082, X, w, 0.2
27, 1083, X, x, 0.62
27, 1084, X, x, 0.57
27, 1086, X, w, 0.2
27, 1089, X, w, 0.2
27, 1091, X, x, 0.62
27, 1093, X, w, 0.2
27, 1096, X, w, 0.45
27, 1098, X, w, 0.45
27, 1100, X, w, 0.2
27, 1103, X, x, 0.62
27, 1104, X, w, 0.25
27, 1110, X, w, 0.45
27, 1114, X, w, 0.45
27, 1115, X, w, 0.2
27, 1118, X, w, 0.2
27, 1124, X, w, 0.2
27, 1127, X, w, 0.2
27, 1131, X, w, 0.2
27, 1133, X, x, 0.535
27, 1134, X, w, 0.25
27, 1139, X, x, 0.62
27, 1140, X, w, 0.25
27, 1142, X, w, 0.2
27, 1148, X, x, 0.735
27, 1149, X, w, 0.296
27, 1151, X, w, 0.2
27, 1156, X, x, 0.535
27, 1159, X, w, 0.2
27, 1162, X, w, 0.2
27, 1168, X, w, 0.2
27, 1169, X, w, 0.2
27, 1170, X, w, 0.2
27, 1172, X, w, 0.2
27, 1173, X, w, 0.2
27, 1176, X, x, 0.735
27, 1182, X, w, 0.45
27, 1184, X, w, 0.2
27, 1185, X, w, 0.2
27, 1186, X, w, 0.2
27, 1187, X, w, 0.2
27, 1189, X, w, 0.2
27, 1192, X, x, 0.535
27, 1194, X, w, 0.2
27, 1195, X, w, 0.2
27, 1196, X, w, 0.2
27, 1201, X, x, 0.62
27, 1204, X, w, 0.45
27, 1210, X, x, 0.735
27, 1213, X, w, 0.2
27, 1216, X, w, 0.2
27, 1217, X, x, 0.621
27, 1219, X, w, 0.25
27, 1223, X, w, 0.2
27, 1225, X, w, 0.2
27, 1227, X, x, 0.535
27, 1228, X, w, 0.25
27, 1233, X, w, 0.2
27, 1234, X, w, 0.2
27, 1235, X, w, 0.2
27, 1239, X, w, 0.2
27, 1240, X, w, 0.2
27, 1241, X, x, 0.535
27, 1246, X, w, 0.2
27, 1253, X, x, 0.621
27, 1254, X, w, 0.25
27, 1256, X, w, 0.2
27, 1259, X, w, 0.2
27, 1260, X, x, 0.62
27, 1262, X, w, 0.2
27, 1263, X, w, 0.2
27, 1264, X, x, 0.62
27, 1268, X, w, 0.2
27, 1270, X, w, 0.2
27, 1275, X, x, 0.735
27, 1278, X, w, 0.2
27, 1279, X, w, 0.2
27, 1282, X, w, 0.2
27, 1284, X, x, 0.62
27, 1287, X, w, 0.45
27, 1292, X, w, 0.2
27, 1294, X, w, 0.2
27, 1296, X, w, 0.45
27, 1298, X, w, 0.2
27, 1303, X, w, 0.2
27, 1304, X, w, 0.2
27, 1305, X, w, 0.2
27, 1308, X, w, 0.2
27, 1310, X, x, 0.535
27, 1311, X, w, 0.25
27, 1313, X, w, 0.2
27, 1321, X, w, 0.45
27, 1322, X, w, 0.2
27, 1329, X, x, 0.535
27, 1334, X, x, 0.62
27, 1337, X, w, 0.45
27, 1356, X, w, 0.2
27, 1358, X, w, 0.2
27, 1364, X, w, 0.45
27, 1371, X, w, 0.45
27, 1374, X, w, 0.2
27, 1376, X, w, 0.2
27, 1378, X, w, 0.2
