participant, trial, stimulus, response, rt
32, 1, X, x, 0.785
32, 5, X, x, 0.735
32, 7, X, x, 0.62
32, 8, X, x, 0.57
32, 9, X, x, 0.57
32, 12, X, x, 0.736
32, 13, X, w, 0.297
32, 16, X, x, 0.735
32, 17, X, w, 0.296
32, 18, X, x, 0.62
32, 19, X, x, 0.57
32, 22, X, w, 0.2
32, 23, X, x, 0.535
32, 26, X, x, 0.735
32, 28, X, w, 0.2
32, 32, X, x, 0.535
32, 43, X, x, 0.535
32, 44, X, x, 0.57
32, 45, X, x, 0.57
32, 50, X, w, 0.2
32, 54, X, w, 0.2
32, 55, X, x, 0.535
32, 61, X, x, 0.62
32, 63, X, w, 0.45
32, 64, X, x, 0.535
32, 66, X, x, 0.62
32, 67, X, w, 0.25
32, 69, X, x, 0.62
32, 70, X, x, 0.57
32, 76, X, w, 0.2
32, 83, X, x, 0.735
32, 84, X, w, 0.3
32, 88, X, w, 0.2
32, 89, X, w, 0.2
32, 91, X, w, 0.2
32, 94, X, w, 0.2
32, 98, X, w, 0.2
32, 105, X, w, 0.45
32, 108, X, w, 0.45
32, 109, X, x, 0.535
32, 117, X, w, 0.45
32, 119, X, x, 0.736
32, 121, X, x, 0.62
32, 128, X, w, 0.2
32, 129, X, w, 0.2
32, 132, X, x, 0.535
32, 138, X, w, 0.45
32, 142, X, x, 0.535
32, 147, X, x, 0.82
32, 149, X, x, 0.62
32, 150, X, w, 0.25
32, 154, X, w, 0.45
32, 156, X, x, 0.735
32, 158, X, x, 0.62
32, 159, X, x, 0.57
32, 160, X, w, 0.25
32, 162, X, x, 0.735
32, 168, X, w, 0.45
32, 171, X, w, 0.2
32, 172, X, w, 0.2
32, 173, X, x, 0.535
32, 176, X, w, 0.2
32, 178, X, x, 0.735
32, 184, X, w, 0.45
32, 185, X, x, 0.535
32, 188, X, w, 0.45
32, 190, X, x, 0.735
32, 192, X, w, 0.2
32, 196, X, w, 0.45
32, 197, X, w, 0.2
32, 205, X, x, 0.535
32, 206, X, w, 0.25
32, 207, X, w, 0.2
32, 210, X, w, 0.2
32, 213, X, w, 0.45
32, 214, X, w, 0.2
32, 215, X, w, 0.2
32, 218, X, w, 0.45
32, 219, X, w, 0.2
32, 220, X, x, 0.535
32, 222, X, w, 0.2
32, 224, X, x, 0.621
32, 226, X, x, 0.62
32, 229, X, x, 0.535
32, 230, X, x, 0.57
32, 232, X, w, 0.2
32, 242, X, x, 0.735
32, 243, X, w, 0.296
32, 247, X, w, 0.2
32, 253, X, x, 0.735
32, 258, X, w, 0.45
32, 260, X, w, 0.45
32, 263, X, x, 0.535
32, 265, X, w, 0.45
32, 267, X, w, 0.2
32, 268, X, x, 0.535
32, 272, X, w, 0.45
32, 274, X, x, 0.735
32, 275, X, w, 0.299
32, 280, X, x, 0.535
32, 281, X, x, 0.57
32, 282, X, x, 0.57
32, 283, X, w, 0.25
32, 288, X, w, 0.2
32, 298, X, x, 0.735
32, 305, X, w, 0.2
32, 309, X, w, 0.45
32, 311, X, w, 0.45
32, 315, X, w, 0.2
32, 323, X, w, 0.2
32, 331, X, x, 0.535
32, 332, X, w, 0.25
32, 334, X, w, 0.45
32, 341, X, w, 0.2
32, 343, X, w, 0.2
32, 346, X, w, 0.2
32, 347, X, w, 0.2
32, 348, X, w, 0.2
32, 355, X, w, 0.2
32, 358, X, x, 0.735
32, 361, X, w, 0.45
32, 362, X, w, 0.2
32, 363, X, w, 0.2
32, 369, X, w, 0.45
32, 370, X, x, 0.535
32, 371, X, w, 0.25
32, 376, X, x, 0.62
32, 379, X, w, 0.45
32, 380, X, w, 0.2
32, 384, X, x, 0.535
32, 387, X, x, 0.62
32, 390, X, w, 0.2
32, 391, X, w, 0.2
32, 394, X, w, 0.2
32, 399, X, w, 0.2
32, 406, X, w, 0.2
32, 407, X, w, 0.2
32, 408, X, x, 0.535
32, 409, X, x, 0.57
32, 410, X, w, 0.25
32, 412, X, x, 0.62
32, 415, X, x, 0.62
32, 419, X, w, 0.2
32, 423, X, w, 0.2
32, 430, X, x, 0.535
32, 431, X, w, 0.25
32, 435, X, w, 0.45
32, 436, X, w, 0.2
32, 441, X, w, 0.2
32, 442, X, w, 0.2
32, 449, X, w, 0.2
32, 451, X, w, 0.2
32, 453, X, x, 0.735
32, 458, X, w, 0.45
32, 459, X, x, 0.535
32, 461, X, w, 0.45
32, 467, X, w, 0.45
32, 475, X, w, 0.2
32, 476, X, w, 0.2
32, 478, X, x, 0.735
32, 479, X, w, 0.298
32, 481, X, w, 0.45
32, 488, X, x, 0.535
32, 493, X, x, 0.535
32, 498, X, x, 0.62
32, 501, X, x, 0.735
32, 503, X, w, 0.2
32, 504, X, w, 0.2
32, 505, X, w, 0.2
32, 510, X, x, 0.62
32, 516, X, w, 0.2
32, 519, X, x, 0.535
32, 520, X, x, 0.57
32, 523, X, w, 0.2
32, 524, X, x, 0.535
32, 526, X, x, 0.62
32, 533, X, w, 0.2
32, 534, X, w, 0.2
32, 536, X, x, 0.735
32, 537, X, w, 0.294
32, 538, X, x, 0.62
32, 540, X, w, 0.2
32, 544, X, w, 0.2
32, 546, X, w, 0.45
32, 548, X, w, 0.45
32, 551, X, w, 0.45
32, 553, X, x, 0.735
32, 557, X, x, 0.735
32, 559, X, w, 0.2
32, 560, X, x, 0.62
32, 562, X, w, 0.2
32, 563, X, w, 0.2
32, 566, X, w, 0.2
32, 568, X, x, 0.62
32, 570, X, w, 0.2
32, 574, X, x, 0.62
32, 575, X, w, 0.25
32, 578, X, w, 0.45
32, 586, X, x, 0.535
32, 592, X, w, 0.2
32, 598, X, x, 0.535
32, 600, X, w, 0.2
32, 605, X, w, 0.45
32, 607, X, w, 0.2
32, 611, X, w, 0.45
32, 613, X, w, 0.2
32, 614, X, w, 0.2
32, 620, X, w, 0.2
32, 621, X, x, 0.535
32, 623, X, x, 0.62
32, 631, X, w, 0.2
32, 636, X, w, 0.2
32, 638, X, x, 0.535
32, 639, X, x, 0.57
32, 649, X, x, 0.735
32, 656, X, w, 0.2
32, 659, X, w, 0.2
32, 663, X, w, 0.2
32, 667, X, x, 0.536
32, 669, X, w, 0.2
32, 670, X, w, 0.2
32, 672, X, w, 0.45
32, 673, X, w, 0.2
32, 676, X, w, 0.45
32, 677, X, w, 0.2
32, 678, X, w, 0.2
32, 681, X, x, 0.535
32, 683, X, w, 0.2
32, 686, X, w, 0.2
32, 689, X, w, 0.2
32, 690, X, x, 0.62
32, 695, X, x, 0.535
32, 699, X, w, 0.2
32, 703, X, x, 0.62
32, 704, X, x, 0.57
32, 705, X, w, 0.25
32, 706, X, w, 0.2
32, 708, X, x, 0.735
32, 709, X, w, 0.299
32, 711, X, w, 0.2
32, 712, X, w, 0.2
32, 716, X, w, 0.2
32, 723, X, w, 0.2
32, 727, X, w, 0.2
32, 733, X, w, 0.2
32, 736, X, w, 0.2
32, 737, X, x, 0.535
32, 744, X, x, 0.536
32, 748, X, x, 0.62
32, 753, X, w, 0.2
32, 755, X, x, 0.62
32, 756, X, w, 0.25
32, 759, X, w, 0.45
32, 761, X, w, 0.45
32, 763, X, x, 0.535
32, 764, X, w, 0.25
32, 765, X, x, 0.62
32, 766, X, x, 0.57
32, 769, X, x, 0.735
32, 770, X, w, 0.297
32, 771, X, x, 0.62
32, 773, X, x, 0.62
32, 774, X, w, 0.25
32, 776, X, x, 0.62
32, 777, X, x, 0.57
32, 781, X, w, 0.45
32, 782, X, w, 0.2
32, 783, X, x, 0.535
32, 788, X, x, 0.735
32, 794, X, w, 0.2
32, 798, X, w, 0.45
32, 799, X, w, 0.2
32, 800, X, x, 0.535
32, 802, X, w, 0.2
32, 803, X, w, 0.2
32, 804, X, w, 0.2
32, 805, X, w, 0.2
32, 808, X, w, 0.2
32, 812, X, w, 0.45
32, 815, X, w, 0.45
32, 821, X, x, 0.535
32, 824, X, x, 0.62
32, 827, X, x, 0.62
32, 837, X, x, 0.535
32, 840, X, w, 0.45
32, 847, X, w, 0.45
32, 852, X, w, 0.2
32, 854, X, w, 0.45
32, 856, X, w, 0.2
32, 858, X, w, 0.2
32, 860, X, w, 0.2
32, 861, X, x, 0.535
32, 862, X, x, 0.57
32, 865, X, w, 0.2
32, 867, X, w, 0.2
32, 870, X, w, 0.2
32, 872, X, w, 0.2
32, 875, X, w, 0.45
32, 877, X, w, 0.2
32, 881, X, x, 0.535
32, 883, X, w, 0.2
32, 886, X, x, 0.62
32, 895, X, w, 0.2
32, 897, X, x, 0.535
32, 899, X, w, 0.2
32, 902, X, x, 0.535
32, 903, X, x, 0.57
32, 904, X, w, 0.25
32, 906, X, w, 0.2
32, 911, X, x, 0.535
32, 912, X, w, 0.25
32, 913, X, x, 0.621
32, 916, X, w, 0.45
32, 917, X, x, 0.535
32, 918, X, w, 0.25
32, 923, X, x, 0.535
32, 928, X, w, 0.2
32, 929, X, w, 0.2
32, 931, X, w, 0.2
32, 932, X, x, 0.535
32, 934, X, w, 0.2
32, 935, X, x, 0.62
32, 940, X, w, 0.2
32, 941, X, x, 0.535
32, 944, X, w, 0.2
32, 947, X, x, 0.535
32, 948, X, w, 0.25
32, 949, X, w, 0.2
32, 953, X, w, 0.2
32, 956, X, x, 0.62
32, 957, X, w, 0.25
32, 962, X, w, 0.2
32, 967, X, x, 0.535
32, 969, X, w, 0.45
32, 972, X, w, 0.45
32, 974, X, w, 0.45
32, 978, X, w, 0.2
32, 981, X, w, 0.2
32, 982, X, w, 0.2
32, 983, X, w, 0.2
32, 984, X, x, 0.535
32, 985, X, w, 0.25
32, 987, X, w, 0.2
32, 993, X, x, 0.62
32, 999, X, x, 0.535
32, 1000, X, w, 0.25
32, 1002, X, w, 0.2
32, 1004, X, x, 0.62
32, 1005, X, w, 0.25
32, 1009, X, x, 0.535
32, 1011, X, w, 0.45
32, 1016, X, w, 0.45
32, 1017, X, w, 0.2
32, 1018, X, x, 0.535
32, 1019, X, w, 0.25
32, 1022, X, w, 0.45
32, 1029, X, w, 0.2
32, 1033, X, w, 0.2
32, 1034, X, w, 0.2
32, 1035, X, w, 0.2
32, 1038, X, w, 0.2
32, 1039, X, w, 0.2
32, 1040, X, w, 0.2
32, 1041, X, w, 0.2
32, 1042, X, w, 0.2
32, 1043, X, w, 0.2
32, 1045, X, x, 0.535
32, 1046, X, w, 0.25
32, 1050, X, w, 0.2
32, 1053, X, w, 0.2
32, 1056, X, x, 0.735
32, 1057, X, w, 0.298
32, 1058, X, w, 0.2
32, 1059, X, w, 0.2
32, 1067, X, w, 0.2
32, 1070, X, w, 0.2
32, 1074, X, w, 0.2
32, 1084, X, w, 0.2
32, 1091, X, w, 0.2
32, 1092, X, w, 0.2
32, 1094, X, x, 0.535
32, 1095, X, x, 0.57
32, 1096, X, w, 0.25
32, 1098, X, w, 0.2
32, 1100, X, w, 0.2
32, 1101, X, w, 0.2
32, 1107, X, w, 0.2
32, 1118, X, w, 0.45
32, 1123, X, x, 0.535
32, 1124, X, w, 0.25
32, 1125, X, w, 0.2
32, 1127, X, w, 0.2
32, 1128, X, w, 0.2
32, 1129, X, w, 0.2
32, 1131, X, w, 0.2
32, 1139, X, w, 0.2
32, 1140, X, x, 0.535
32, 1141, X, w, 0.25
32, 1145, X, x, 0.62
32, 1152, X, w, 0.2
32, 1153, X, x, 0.535
32, 1157, X, w, 0.2
32, 1159, X, w, 0.45
32, 1161, X, x, 0.535
32, 1166, X, w, 0.2
32, 1167, X, x, 0.535
32, 1172, X, w, 0.2
32, 1174, X, w, 0.2
32, 1178, X, w, 0.2
32, 1179, X, w, 0.2
32, 1181, X, x, 0.535
32, 1187, X, w, 0.2
32, 1189, X, w, 0.2
32, 1190, X, w, 0.2
32, 1196, X, w, 0.2
32, 1199, X, w, 0.2
32, 1204, X, w, 0.45
32, 1210, X, w, 0.2
32, 1213, X, x, 0.535
32, 1218, X, w, 0.2
32, 1220, X, w, 0.2
32, 1224, X, w, 0.2
32, 1227, X, w, 0.2
32, 1228, X, w, 0.2
32, 1229, X, w, 0.2
32, 1230, X, w, 0.2
32, 1231, X, w, 0.2
32, 1239, X, w, 0.2
32, 1245, X, x, 0.535
32, 1247, X, w, 0.2
32, 1250, X, w, 0.2
32, 1251, X, w, 0.2
32, 1252, X, w, 0.2
32, 1253, X, w, 0.2
32, 1261, X, w, 0.2
32, 1262, X, w, 0.2
32, 1264, X, w, 0.2
32, 1268, X, x, 0.535
32, 1274, X, w, 0.2
32, 1276, X, w, 0.2
32, 1278, X, w, 0.2
32, 1280, X, x, 0.735
32, 1281, X, w, 0.298
32, 1282, X, w, 0.2
32, 1283, X, w, 0.2
32, 1285, X, x, 0.62
32, 1286, X, x, 0.57
32, 1288, X, w, 0.2
32, 1290, X, w, 0.2
32, 1291, X, w, 0.2
32, 1293, X, w, 0.2
32, 1294, X, w, 0.2
32, 1297, X, w, 0.2
32, 1298, X, w, 0.2
32, 1299, X, w, 0.2
32, 1301, X, w, 0.2
32, 1304, X, w, 0.2
32, 1306, X, w, 0.2
32, 1307, X, x, 0.535
32, 1309, X, w, 0.45
32, 1315, X, w, 0.45
32, 1319, X, w, 0.2
32, 1322, X, w, 0.2
32, 1323, X, x, 0.535
32, 1329, X, w, 0.2
32, 1333, X, w, 0.45
32, 1340, X, w, 0.2
32, 1342, X, w, 0.2
32, 1343, X, w, 0.2
32, 1346, X, w, 0.2
32, 1351, X, w, 0.2
32, 1352, X, w, 0.2
32, 1356, X, w, 0.2
32, 1359, X, x, 0.535
32, 1361, X, w, 0.2
32, 1364, X, w, 0.2
32, 1368, X, w, 0.2
32, 1369, X, w, 0.2
32, 1373, X, x, 0.735
32, 1375, X, w, 0.2
