participant, trial, stimulus, response, rt
35, 1, X, x, 0.785
35, 5, X, w, 0.45
35, 6, X, x, 0.535
35, 9, X, w, 0.45
35, 10, X, w, 0.2
35, 11, X, x, 0.535
35, 13, X, x, 0.735
35, 28, X, w, 0.2
35, 41, X, x, 0.735
35, 46, X, x, 0.735
35, 48, X, x, 0.62
35, 49, X, x, 0.57
35, 50, X, x, 0.57
35, 52, X, x, 0.735
35, 53, X, w, 0.292
35, 54, X, x, 0.62
35, 57, X, x, 0.735
35, 61, X, x, 0.535
35, 63, X, w, 0.45
35, 64, X, x, 0.535
35, 65, X, w, 0.25
35, 67, X, x, 0.735
35, 71, X, x, 0.62
35, 74, X, x, 0.62
35, 76, X, x, 0.62
35, 78, X, x, 0.735
35, 79, X, w, 0.297
35, 81, X, w, 0.45
35, 88, X, w, 0.2
35, 92, X, w, 0.2
35, 94, X, w, 0.45
35, 97, X, x, 0.535
35, 100, X, w, 0.2
35, 102, X, w, 0.2
35, 107, X, w, 0.45
35, 108, X, x, 0.535
35, 110, X, x, 0.62
35, 111, X, x, 0.57
35, 121, X, w, 0.2
35, 124, X, x, 0.735
35, 126, X, w, 0.2
35, 129, X, w, 0.45
35, 133, X, w, 0.45
35, 136, X, x, 0.535
35, 139, X, w, 0.2
35, 141, X, w, 0.2
35, 146, X, w, 0.45
35, 147, X, w, 0.2
35, 148, X, w, 0.2
35, 155, X, x, 0.735
35, 157, X, x, 0.62
35, 159, X, w, 0.2
35, 161, X, w, 0.2
35, 162, X, w, 0.2
35, 165, X, x, 0.735
35, 170, X, w, 0.2
35, 174, X, w, 0.2
35, 175, X, w, 0.2
35, 179, X, x, 0.735
35, 180, X, w, 0.294
35, 181, X, x, 0.62
35, 182, X, w, 0.25
35, 189, X, w, 0.45
35, 190, X, w, 0.2
35, 192, X, w, 0.2
35, 193, X, w, 0.2
35, 197, X, w, 0.2
35, 199, X, x, 0.535
35, 202, X, x, 0.62
35, 208, X, w, 0.45
35, 209, X, w, 0.2
35, 210, X, w, 0.2
35, 211, X, x, 0.535
35, 212, X, w, 0.25
35, 213, X, x, 0.62
35, 215, X, w, 0.45
35, 216, X, w, 0.2
35, 220, X, w, 0.2
35, 223, X, x, 0.535
35, 229, X, w, 0.2
35, 231, X, w, 0.45
35, 232, X, w, 0.2
35, 233, X, w, 0.2
35, 237, X, w, 0.2
35, 238, X, x, 0.535
35, 240, X, w, 0.2
35, 243, X, w, 0.2
35, 247, X, w, 0.2
35, 248, X, x, 0.535
35, 251, X, x, 0.735
35, 253, X, w, 0.2
35, 257, X, w, 0.2
35, 258, X, w, 0.2
35, 259, X, w, 0.2
35, 262, X, w, 0.2
35, 263, X, w, 0.2
35, 269, X, w, 0.2
35, 272, X, x, 0.535
35, 274, X, w, 0.2
35, 279, X, w, 0.2
35, 282, X, x, 0.535
35, 288, X, w, 0.2
35, 298, X, w, 0.2
35, 301, X, x, 0.535
35, 304, X, w, 0.2
35, 305, X, w, 0.2
35, 307, X, x, 0.62
35, 309, X, w, 0.2
35, 312, X, x, 0.535
35, 313, X, w, 0.25
35, 317, X, x, 0.535
35, 320, X, w, 0.2
35, 323, X, x, 0.62
35, 324, X, w, 0.25
35, 327, X, x, 0.735
35, 329, X, w, 0.2
35, 330, X, x, 0.62
35, 332, X, x, 0.62
35, 333, X, x, 0.57
35, 334, X, w, 0.25
35, 336, X, x, 0.62
35, 337, X, w, 0.25
35, 341, X, x, 0.535
35, 342, X, w, 0.25
35, 350, X, w, 0.2
35, 363, X, x, 0.736
35, 364, X, w, 0.294
35, 371, X, x, 0.735
35, 375, X, x, 0.736
35, 376, X, w, 0.251
35, 377, X, w, 0.2
35, 386, X, x, 0.735
35, 390, X, w, 0.45
35, 393, X, x, 0.735
35, 394, X, w, 0.296
35, 395, X, w, 0.2
35, 401, X, x, 0.735
35, 402, X, w, 0.294
35, 404, X, w, 0.45
35, 405, X, w, 0.2
35, 407, X, x, 0.535
35, 409, X, x, 0.62
35, 411, X, x, 0.62
35, 415, X, x, 0.735
35, 416, X, w, 0.292
35, 417, X, w, 0.2
35, 422, X, w, 0.2
35, 423, X, w, 0.2
35, 424, X, x, 0.535
35, 425, X, x, 0.57
35, 426, X, w, 0.25
35, 427, X, w, 0.2
35, 428, X, x, 0.62
35, 437, X, w, 0.2
35, 438, X, w, 0.2
35, 443, X, x, 0.535
35, 444, X, w, 0.25
35, 445, X, w, 0.2
35, 456, X, w, 0.45
35, 459, X, x, 0.535
35, 460, X, x, 0.571
35, 462, X, w, 0.2
35, 463, X, w, 0.2
35, 465, X, w, 0.2
35, 473, X, w, 0.2
35, 483, X, x, 0.535
35, 486, X, w, 0.2
35, 487, X, x, 0.62
35, 488, X, w, 0.25
35, 493, X, w, 0.45
35, 494, X, w, 0.2
35, 498, X, x, 0.535
35, 499, X, x, 0.57
35, 500, X, x, 0.57
35, 501, X, w, 0.25
35, 502, X, w, 0.2
35, 503, X, w, 0.2
35, 509, X, w, 0.2
35, 510, X, x, 0.535
35, 511, X, w, 0.25
35, 515, X, w, 0.2
35, 519, X, x, 0.535
35, 523, X, x, 0.62
35, 524, X, x, 0.57
35, 525, X, x, 0.57
35, 526, X, w, 0.25
35, 527, X, w, 0.2
35, 529, X, w, 0.2
35, 530, X, w, 0.2
35, 531, X, w, 0.2
35, 537, X, x, 0.62
35, 542, X, w, 0.45
35, 543, X, x, 0.535
35, 546, X, w, 0.45
35, 548, X, w, 0.2
35, 554, X, x, 0.535
35, 555, X, x, 0.57
35, 560, X, w, 0.2
35, 562, X, w, 0.2
35, 565, X, w, 0.45
35, 568, X, x, 0.535
35, 573, X, x, 0.535
35, 577, X, w, 0.2
35, 578, X, x, 0.62
35, 580, X, w, 0.2
35, 581, X, w, 0.2
35, 583, X, w, 0.2
35, 587, X, w, 0.2
35, 590, X, x, 0.62
35, 593, X, w, 0.45
35, 597, X, w, 0.45
35, 599, X, w, 0.2
35, 603, X, x, 0.535
35, 608, X, w, 0.2
35, 613, X, w, 0.45
35, 617, X, x, 0.735
35, 627, X, x, 0.535
35, 628, X, x, 0.57
35, 632, X, w, 0.2
35, 640, X, w, 0.2
35, 642, X, w, 0.2
35, 645, X, w, 0.2
35, 650, X, w, 0.2
35, 651, X, w, 0.2
35, 652, X, w, 0.2
35, 654, X, w, 0.45
35, 656, X, w, 0.2
35, 658, X, w, 0.45
35, 659, X, w, 0.2
35, 666, X, x, 0.535
35, 670, X, w, 0.2
35, 674, X, w, 0.2
35, 678, X, w, 0.2
35, 686, X, w, 0.2
35, 689, X, w, 0.2
35, 691, X, x, 0.535
35, 692, X, x, 0.57
35, 693, X, w, 0.25
35, 694, X, w, 0.2
35, 695, X, x, 0.62
35, 698, X, x, 0.62
35, 699, X, w, 0.25
35, 704, X, w, 0.45
35, 705, X, x, 0.535
35, 706, X, x, 0.57
35, 712, X, w, 0.2
35, 713, X, w, 0.2
35, 717, X, x, 0.535
35, 718, X, x, 0.57
35, 720, X, x, 0.62
35, 721, X, x, 0.57
35, 724, X, x, 0.535
35, 727, X, x, 0.62
35, 728, X, w, 0.25
35, 732, X, w, 0.2
35, 738, X, x, 0.535
35, 740, X, x, 0.62
35, 742, X, x, 0.62
35, 754, X, w, 0.2
35, 764, X, w, 0.2
35, 765, X, w, 0.2
35, 767, X, w, 0.2
35, 769, X, w, 0.2
35, 772, X, x, 0.735
35, 773, X, w, 0.3
35, 774, X, w, 0.2
35, 781, X, w, 0.2
35, 783, X, w, 0.2
35, 785, X, w, 0.45
35, 786, X, w, 0.2
35, 790, X, w, 0.2
35, 793, X, w, 0.2
35, 794, X, w, 0.2
35, 795, X, w, 0.2
35, 797, X, w, 0.2
35, 799, X, x, 0.535
35, 800, X, w, 0.25
35, 802, X, w, 0.2
35, 804, X, x, 0.62
35, 805, X, x, 0.57
35, 806, X, x, 0.57
35, 809, X, w, 0.2
35, 810, X, w, 0.2
35, 813, X, w, 0.45
35, 818, X, x, 0.535
35, 822, X, x, 0.62
35, 823, X, w, 0.25
35, 824, X, w, 0.2
35, 828, X, w, 0.45
35, 829, X, x, 0.535
35, 830, X, w, 0.25
35, 832, X, x, 0.735
35, 833, X, w, 0.296
35, 834, X, w, 0.2
35, 843, X, w, 0.45
35, 844, X, w, 0.2
35, 845, X, w, 0.2
35, 846, X, w, 0.2
35, 849, X, x, 0.535
35, 852, X, w, 0.2
35, 856, X, x, 0.535
35, 858, X, w, 0.2
35, 862, X, x, 0.535
35, 863, X, x, 0.57
35, 865, X, w, 0.2
35, 866, X, w, 0.2
35, 869, X, x, 0.62
35, 876, X, w, 0.2
35, 879, X, w, 0.2
35, 882, X, w, 0.45
35, 887, X, x, 0.535
35, 889, X, w, 0.2
35, 892, X, w, 0.2
35, 893, X, x, 0.62
35, 894, X, w, 0.25
35, 896, X, x, 0.735
35, 898, X, x, 0.62
35, 901, X, x, 0.735
35, 905, X, w, 0.2
35, 911, X, w, 0.2
35, 913, X, x, 0.735
35, 915, X, x, 0.62
35, 918, X, w, 0.2
35, 920, X, w, 0.45
35, 923, X, w, 0.45
35, 924, X, x, 0.535
35, 925, X, w, 0.25
35, 926, X, w, 0.2
35, 929, X, x, 0.735
35, 930, X, w, 0.296
35, 931, X, w, 0.2
35, 933, X, w, 0.2
35, 935, X, w, 0.2
35, 936, X, w, 0.2
35, 937, X, w, 0.2
35, 938, X, w, 0.2
35, 941, X, w, 0.2
35, 944, X, w, 0.2
35, 947, X, w, 0.2
35, 950, X, w, 0.2
35, 954, X, w, 0.45
35, 957, X, w, 0.2
35, 959, X, x, 0.735
35, 963, X, w, 0.2
35, 969, X, w, 0.2
35, 972, X, w, 0.2
35, 973, X, w, 0.2
35, 988, X, x, 0.535
35, 990, X, w, 0.2
35, 991, X, w, 0.2
35, 992, X, x, 0.62
35, 993, X, w, 0.25
35, 997, X, w, 0.2
35, 998, X, x, 0.535
35, 1001, X, w, 0.2
35, 1005, X, x, 0.62
35, 1006, X, x, 0.57
35, 1011, X, x, 0.536
35, 1014, X, w, 0.45
35, 1015, X, w, 0.2
35, 1018, X, x, 0.535
35, 1020, X, w, 0.2
35, 1021, X, w, 0.2
35, 1025, X, x, 0.735
35, 1028, X, w, 0.2
35, 1029, X, w, 0.2
35, 1030, X, w, 0.2
35, 1031, X, x, 0.62
35, 1033, X, w, 0.2
35, 1036, X, w, 0.2
35, 1048, X, w, 0.2
35, 1050, X, w, 0.2
35, 1051, X, x, 0.535
35, 1052, X, w, 0.25
35, 1056, X, x, 0.62
35, 1057, X, w, 0.25
35, 1060, X, w, 0.2
35, 1062, X, w, 0.2
35, 1065, X, x, 0.535
35, 1068, X, w, 0.2
35, 1069, X, x, 0.62
35, 1071, X, w, 0.45
35, 1076, X, x, 0.535
35, 1082, X, w, 0.45
35, 1085, X, w, 0.2
35, 1086, X, w, 0.2
35, 1088, X, x, 0.735
35, 1089, X, w, 0.296
35, 1092, X, w, 0.2
35, 1094, X, w, 0.2
35, 1101, X, w, 0.2
35, 1104, X, x, 0.62
35, 1108, X, w, 0.2
35, 1110, X, w, 0.45
35, 1111, X, x, 0.535
35, 1114, X, w, 0.2
35, 1117, X, w, 0.2
35, 1119, X, w, 0.2
35, 1123, X, w, 0.2
35, 1124, X, x, 0.535
35, 1128, X, w, 0.45
35, 1131, X, x, 0.535
35, 1133, X, w, 0.2
35, 1135, X, x, 0.62
35, 1136, X, w, 0.25
35, 1143, X, w, 0.2
35, 1148, X, w, 0.45
35, 1153, X, w, 0.45
35, 1155, X, w, 0.2
35, 1156, X, w, 0.2
35, 1172, X, x, 0.535
35, 1173, X, w, 0.25
35, 1174, X, w, 0.2
35, 1175, X, x, 0.62
35, 1183, X, w, 0.2
35, 1189, X, w, 0.2
35, 1190, X, x, 0.535
35, 1191, X, x, 0.57
35, 1193, X, w, 0.45
35, 1194, X, w, 0.2
35, 1203, X, w, 0.2
35, 1207, X, w, 0.2
35, 1210, X, w, 0.2
35, 1211, X, w, 0.2
35, 1212, X, x, 0.535
35, 1214, X, w, 0.45
35, 1216, X, w, 0.45
35, 1219, X, x, 0.535
35, 1220, X, w, 0.25
35, 1221, X, w, 0.2
35, 1224, X, x, 0.62
35, 1231, X, w, 0.45
35, 1237, X, w, 0.2
35, 1239, X, x, 0.62
35, 1240, X, x, 0.571
35, 1241, X, x, 0.57
35, 1242, X, x, 0.57
35, 1246, X, w, 0.2
35, 1248, X, w, 0.2
35, 1251, X, w, 0.45
35, 1253, X, w, 0.2
35, 1258, X, w, 0.45
35, 1259, X, w, 0.2
35, 1261, X, w, 0.2
35, 1263, X, w, 0.2
35, 1264, X, w, 0.2
35, 1268, X, w, 0.2
35, 1271, X, w, 0.45
35, 1276, X, w, 0.2
35, 1283, X, w, 0.2
35, 1285, X, w, 0.2
35, 1288, X, w, 0.2
35, 1290, X, w, 0.2
35, 1291, X, w, 0.2
35, 1292, X, w, 0.2
35, 1295, X, w, 0.2
35, 1298, X, w, 0.2
35, 1300, X, w, 0.45
35, 1304, X, w, 0.2
35, 1305, X, w, 0.2
35, 1306, X, w, 0.2
35, 1309, X, x, 0.535
35, 1321, X, w, 0.2
35, 1323, X, w, 0.2
35, 1324, X, x, 0.621
35, 1325, X, w, 0.25
35, 1326, X, w, 0.2
35, 1328, X, w, 0.2
35, 1331, X, x, 0.62
35, 1342, X, w, 0.2
35, 1347, X, w, 0.2
35, 1349, X, w, 0.2
35, 1350, X, w, 0.2
35, 1359, X, w, 0.2
35, 1360, X, w, 0.2
35, 1367, X, w, 0.2
35, 1370, X, w, 0.2
35, 1371, X, w, 0.2
35, 1375, X, w, 0.2
35, 1376, X, w, 0.2
