participant, trial, stimulus, response, rt
6, 1, X, x, 0.785
6, 7, X, x, 0.735
6, 29, X, w, 0.45
6, 31, X, w, 0.45
6, 33, X, x, 0.735
6, 34, X, w, 0.29
6, 36, X, w, 0.2
6, 43, X, w, 0.45
6, 47, X, x, 0.735
6, 48, X, w, 0.297
6, 50, X, x, 0.62
6, 54, X, x, 0.735
6, 55, X, w, 0.292
6, 57, X, x, 0.735
6, 58, X, w, 0.298
6, 61, X, x, 0.735
6, 65, X, x, 0.735
6, 66, X, w, 0.289
6, 69, X, w, 0.2
6, 70, X, x, 0.535
6, 71, X, w, 0.25
6, 72, X, x, 0.62
6, 75, X, w, 0.45
6, 85, X, x, 0.735
6, 90, X, x, 0.62
6, 94, X, w, 0.2
6, 102, X, w, 0.2
6, 103, X, w, 0.2
6, 105, X, x, 0.535
6, 106, X, x, 0.57
6, 108, X, x, 0.62
6, 110, X, x, 0.736
6, 111, X, w, 0.299
6, 113, X, w, 0.45
6, 115, X, x, 0.735
6, 116, X, w, 0.293
6, 120, X, w, 0.45
6, 125, X, x, 0.535
6, 127, X, w, 0.2
6, 128, X, w, 0.2
6, 133, X, w, 0.2
6, 135, X, x, 0.735
6, 136, X, w, 0.298
6, 138, X, w, 0.2
6, 140, X, w, 0.45
6, 141, X, x, 0.535
6, 149, X, x, 0.535
6, 150, X, x, 0.57
6, 151, X, w, 0.25
6, 155, X, x, 0.535
6, 156, X, w, 0.25
6, 158, X, x, 0.62
6, 160, X, x, 0.621
6, 161, X, w, 0.25
6, 164, X, w, 0.45
6, 167, X, w, 0.45
6, 168, X, w, 0.2
6, 173, X, x, 0.535
6, 188, X, x, 0.535
6, 190, X, x, 0.735
6, 201, X, x, 0.536
6, 202, X, x, 0.57
6, 204, X, x, 0.62
6, 207, X, x, 0.62
6, 213, X, w, 0.2
6, 221, X, w, 0.2
6, 224, X, w, 0.2
6, 226, X, w, 0.2
6, 230, X, w, 0.2
6, 231, X, w, 0.2
6, 233, X, w, 0.2
6, 237, X, x, 0.735
6, 238, X, w, 0.3
6, 244, X, x, 0.735
6, 245, X, w, 0.296
6, 247, X, x, 0.621
6, 248, X, w, 0.25
6, 249, X, x, 0.62
6, 250, X, w, 0.25
6, 253, X, w, 0.45
6, 254, X, x, 0.535
6, 255, X, x, 0.57
6, 260, X, w, 0.2
6, 261, X, w, 0.2
6, 262, X, w, 0.2
6, 263, X, w, 0.2
6, 264, X, x, 0.535
6, 268, X, w, 0.2
6, 270, X, x, 0.62
6, 271, X, x, 0.571
6, 272, X, w, 0.25
6, 274, X, w, 0.2
6, 277, X, x, 0.735
6, 285, X, w, 0.2
6, 291, X, w, 0.2
6, 292, X, w, 0.2
6, 300, X, w, 0.2
6, 302, X, w, 0.2
6, 303, X, w, 0.2
6, 313, X, w, 0.45
6, 314, X, w, 0.2
6, 317, X, x, 0.735
6, 318, X, w, 0.298
6, 321, X, w, 0.2
6, 328, X, x, 0.535
6, 329, X, w, 0.25
6, 330, X, x, 0.62
6, 332, X, w, 0.2
6, 334, X, x, 0.735
6, 336, X, w, 0.2
6, 337, X, x, 0.62
6, 340, X, w, 0.2
6, 342, X, w, 0.45
6, 347, X, x, 0.535
6, 350, X, w, 0.2
6, 351, X, w, 0.2
6, 352, X, w, 0.2
6, 354, X, x, 0.536
6, 356, X, w, 0.2
6, 357, X, w, 0.2
6, 359, X, x, 0.735
6, 361, X, x, 0.62
6, 365, X, w, 0.2
6, 369, X, x, 0.535
6, 370, X, x, 0.57
6, 372, X, w, 0.2
6, 375, X, x, 0.535
6, 384, X, w, 0.2
6, 385, X, w, 0.2
6, 387, X, w, 0.45
6, 389, X, w, 0.45
6, 390, X, w, 0.2
6, 392, X, w, 0.45
6, 395, X, x, 0.736
6, 397, X, w, 0.2
6, 400, X, w, 0.2
6, 401, X, w, 0.2
6, 403, X, x, 0.735
6, 405, X, w, 0.2
6, 408, X, w, 0.45
6, 410, X, w, 0.2
6, 412, X, w, 0.2
6, 413, X, w, 0.2
6, 417, X, x, 0.735
6, 418, X, w, 0.298
6, 426, X, x, 0.621
6, 428, X, w, 0.2
6, 432, X, w, 0.2
6, 435, X, w, 0.2
6, 437, X, w, 0.2
6, 440, X, x, 0.535
6, 442, X, w, 0.45
6, 444, X, w, 0.45
6, 446, X, x, 0.735
6, 448, X, w, 0.2
6, 450, X, w, 0.45
6, 456, X, x, 0.536
6, 461, X, w, 0.45
6, 462, X, w, 0.2
6, 467, X, w, 0.2
6, 468, X, x, 0.535
6, 469, X, w, 0.25
6, 470, X, x, 0.62
6, 471, X, w, 0.25
6, 475, X, x, 0.62
6, 476, X, w, 0.25
6, 477, X, x, 0.62
6, 478, X, w, 0.25
6, 479, X, w, 0.2
6, 481, X, x, 0.62
6, 482, X, x, 0.57
6, 484, X, x, 0.62
6, 489, X, x, 0.735
6, 492, X, w, 0.2
6, 493, X, w, 0.2
6, 494, X, x, 0.62
6, 501, X, w, 0.2
6, 503, X, x, 0.735
6, 508, X, x, 0.62
6, 511, X, w, 0.2
6, 513, X, w, 0.2
6, 514, X, w, 0.2
6, 515, X, x, 0.62
6, 516, X, w, 0.25
6, 517, X, x, 0.62
6, 519, X, w, 0.45
6, 521, X, w, 0.45
6, 522, X, x, 0.535
6, 525, X, x, 0.735
6, 526, X, w, 0.299
6, 529, X, w, 0.2
6, 530, X, x, 0.535
6, 532, X, w, 0.45
6, 533, X, x, 0.535
6, 536, X, x, 0.62
6, 538, X, w, 0.2
6, 539, X, w, 0.2
6, 540, X, w, 0.2
6, 541, X, x, 0.62
6, 546, X, w, 0.45
6, 547, X, w, 0.2
6, 551, X, w, 0.45
6, 554, X, x, 0.735
6, 556, X, w, 0.2
6, 561, X, w, 0.45
6, 562, X, w, 0.2
6, 565, X, x, 0.535
6, 568, X, w, 0.2
6, 572, X, w, 0.45
6, 574, X, w, 0.2
6, 577, X, w, 0.2
6, 578, X, x, 0.535
6, 590, X, w, 0.2
6, 591, X, x, 0.535
6, 592, X, w, 0.25
6, 593, X, x, 0.62
6, 597, X, w, 0.2
6, 598, X, x, 0.535
6, 600, X, x, 0.62
6, 603, X, w, 0.2
6, 604, X, x, 0.62
6, 605, X, w, 0.25
6, 606, X, x, 0.62
6, 608, X, w, 0.45
6, 609, X, x, 0.535
6, 610, X, x, 0.57
6, 617, X, x, 0.535
6, 618, X, w, 0.25
6, 619, X, w, 0.2
6, 620, X, w, 0.2
6, 625, X, w, 0.2
6, 627, X, w, 0.2
6, 629, X, x, 0.735
6, 636, X, w, 0.45
6, 637, X, w, 0.2
6, 639, X, w, 0.45
6, 642, X, x, 0.535
6, 643, X, x, 0.57
6, 646, X, x, 0.621
6, 649, X, w, 0.45
6, 653, X, w, 0.2
6, 654, X, w, 0.2
6, 656, X, w, 0.2
6, 662, X, w, 0.2
6, 663, X, x, 0.535
6, 666, X, w, 0.2
6, 667, X, w, 0.2
6, 672, X, x, 0.535
6, 673, X, w, 0.25
6, 679, X, w, 0.45
6, 680, X, w, 0.2
6, 687, X, w, 0.2
6, 690, X, w, 0.2
6, 695, X, x, 0.62
6, 703, X, w, 0.2
6, 704, X, x, 0.535
6, 705, X, x, 0.57
6, 707, X, x, 0.485
6, 712, X, x, 0.535
6, 713, X, w, 0.25
6, 718, X, w, 0.2
6, 719, X, w, 0.2
6, 721, X, x, 0.535
6, 725, X, w, 0.45
6, 726, X, w, 0.2
6, 727, X, w, 0.2
6, 733, X, w, 0.2
6, 735, X, w, 0.45
6, 737, X, w, 0.45
6, 746, X, w, 0.2
6, 750, X, w, 0.2
6, 754, X, x, 0.535
6, 757, X, w, 0.2
6, 760, X, x, 0.535
6, 766, X, w, 0.45
6, 768, X, w, 0.2
6, 769, X, w, 0.2
6, 770, X, w, 0.2
6, 775, X, x, 0.535
6, 782, X, w, 0.2
6, 788, X, w, 0.2
6, 790, X, x, 0.535
6, 791, X, x, 0.57
6, 795, X, x, 0.735
6, 797, X, w, 0.2
6, 801, X, w, 0.2
6, 807, X, x, 0.535
6, 814, X, x, 0.535
6, 821, X, w, 0.2
6, 822, X, w, 0.2
6, 823, X, w, 0.2
6, 831, X, w, 0.2
6, 835, X, x, 0.535
6, 836, X, x, 0.57
6, 838, X, x, 0.621
6, 842, X, w, 0.2
6, 846, X, x, 0.536
6, 847, X, w, 0.25
6, 848, X, x, 0.62
6, 851, X, w, 0.2
6, 855, X, w, 0.45
6, 858, X, w, 0.45
6, 860, X, w, 0.2
6, 862, X, x, 0.735
6, 864, X, w, 0.2
6, 866, X, w, 0.2
6, 867, X, w, 0.2
6, 876, X, x, 0.535
6, 878, X, w, 0.2
6, 880, X, w, 0.45
6, 885, X, w, 0.2
6, 889, X, w, 0.2
6, 895, X, x, 0.537
6, 896, X, x, 0.57
6, 897, X, w, 0.25
6, 900, X, x, 0.62
6, 907, X, w, 0.2
6, 910, X, x, 0.535
6, 912, X, w, 0.2
6, 916, X, w, 0.2
6, 918, X, x, 0.535
6, 920, X, w, 0.2
6, 922, X, w, 0.2
6, 924, X, x, 0.62
6, 927, X, w, 0.45
6, 929, X, w, 0.2
6, 931, X, w, 0.2
6, 932, X, w, 0.2
6, 935, X, w, 0.2
6, 939, X, w, 0.2
6, 944, X, x, 0.535
6, 949, X, w, 0.2
6, 952, X, w, 0.2
6, 960, X, w, 0.2
6, 961, X, w, 0.2
6, 973, X, x, 0.735
6, 974, X, w, 0.297
6, 979, X, w, 0.2
6, 980, X, w, 0.2
6, 985, X, x, 0.735
6, 988, X, x, 0.62
6, 989, X, x, 0.57
6, 993, X, w, 0.45
6, 995, X, x, 0.535
6, 996, X, x, 0.57
6, 997, X, w, 0.25
6, 998, X, w, 0.2
6, 999, X, w, 0.2
6, 1000, X, w, 0.2
6, 1004, X, w, 0.2
6, 1006, X, w, 0.45
6, 1008, X, w, 0.2
6, 1009, X, w, 0.2
6, 1015, X, x, 0.535
6, 1017, X, w, 0.2
6, 1020, X, w, 0.2
6, 1026, X, w, 0.45
6, 1032, X, w, 0.2
6, 1033, X, w, 0.2
6, 1036, X, w, 0.2
6, 1043, X, x, 0.535
6, 1048, X, w, 0.2
6, 1050, X, w, 0.2
6, 1051, X, w, 0.2
6, 1052, X, w, 0.2
6, 1056, X, w, 0.2
6, 1060, X, w, 0.45
6, 1064, X, w, 0.45
6, 1068, X, x, 0.535
6, 1071, X, x, 0.62
6, 1072, X, w, 0.25
6, 1075, X, w, 0.2
6, 1078, X, x, 0.535
6, 1080, X, x, 0.62
6, 1084, X, w, 0.45
6, 1088, X, w, 0.2
6, 1092, X, x, 0.535
6, 1093, X, w, 0.25
6, 1097, X, w, 0.2
6, 1098, X, x, 0.535
6, 1099, X, w, 0.25
6, 1103, X, w, 0.45
6, 1108, X, x, 0.62
6, 1112, X, w, 0.45
6, 1114, X, x, 0.535
6, 1115, X, w, 0.25
6, 1116, X, x, 0.62
6, 1122, X, x, 0.535
6, 1126, X, x, 0.535
6, 1128, X, w, 0.2
6, 1129, X, w, 0.2
6, 1132, X, w, 0.2
6, 1133, X, w, 0.2
6, 1134, X, w, 0.2
6, 1138, X, w, 0.2
6, 1139, X, w, 0.2
6, 1142, X, w, 0.2
6, 1145, X, w, 0.2
6, 1148, X, w, 0.2
6, 1149, X, w, 0.2
6, 1151, X, w, 0.2
6, 1156, X, w, 0.2
6, 1164, X, w, 0.45
6, 1165, X, x, 0.535
6, 1166, X, w, 0.25
6, 1168, X, w, 0.2
6, 1170, X, w, 0.2
6, 1173, X, w, 0.45
6, 1175, X, x, 0.735
6, 1177, X, w, 0.2
6, 1178, X, w, 0.2
6, 1182, X, x, 0.536
6, 1187, X, w, 0.2
6, 1188, X, w, 0.2
6, 1189, X, w, 0.2
6, 1194, X, w, 0.2
6, 1197, X, w, 0.45
6, 1198, X, w, 0.2
6, 1199, X, w, 0.2
6, 1201, X, x, 0.535
6, 1202, X, w, 0.25
6, 1204, X, w, 0.2
6, 1208, X, x, 0.535
6, 1210, X, w, 0.2
6, 1212, X, w, 0.2
6, 1213, X, w, 0.2
6, 1214, X, w, 0.2
6, 1215, X, w, 0.2
6, 1216, X, x, 0.62
6, 1218, X, w, 0.2
6, 1219, X, x, 0.62
6, 1220, X, x, 0.57
6, 1222, X, w, 0.2
6, 1223, X, x, 0.62
6, 1226, X, w, 0.45
6, 1227, X, w, 0.2
6, 1231, X, x, 0.536
6, 1233, X, w, 0.2
6, 1235, X, w, 0.2
6, 1238, X, x, 0.735
6, 1241, X, w, 0.45
6, 1249, X, w, 0.2
6, 1254, X, w, 0.2
6, 1258, X, x, 0.82
6, 1262, X, w, 0.2
6, 1264, X, w, 0.2
6, 1267, X, w, 0.2
6, 1273, X, x, 0.735
6, 1277, X, w, 0.2
6, 1278, X, w, 0.2
6, 1282, X, w, 0.2
6, 1287, X, x, 0.62
6, 1289, X, w, 0.2
6, 1291, X, x, 0.62
6, 1293, X, w, 0.2
6, 1304, X, w, 0.45
6, 1306, X, w, 0.2
6, 1307, X, w, 0.2
6, 1308, X, w, 0.2
6, 1310, X, w, 0.45
6, 1314, X, x, 0.535
6, 1315, X, w, 0.25
6, 1316, X, x, 0.62
6, 1320, X, x, 0.62
6, 1326, X, w, 0.2
6, 1335, X, w, 0.2
6, 1337, X, w, 0.2
6, 1338, X, w, 0.2
6, 1341, X, x, 0.62
6, 1342, X, x, 0.57
6, 1344, X, w, 0.2
6, 1346, X, w, 0.2
6, 1348, X, w, 0.2
6, 1351, X, x, 0.621
6, 1353, X, x, 0.62
6, 1355, X, w, 0.2
6, 1360, X, w, 0.2
6, 1376, X, w, 0.45
6, 1379, X, w, 0.2
6, 1380, X, w, 0.2
