participant, trial, stimulus, response, rt
64, 7, X, x, 0.535
64, 11, X, w, 0.45
64, 13, X, w, 0.45
64, 17, X, w, 0.45
64, 18, X, w, 0.2
64, 24, X, w, 0.45
64, 28, X, w, 0.45
64, 34, X, w, 0.45
64, 37, X, x, 0.535
64, 38, X, w, 0.25
64, 39, X, w, 0.2
64, 40, X, w, 0.2
64, 46, X, x, 0.735
64, 48, X, x, 0.62
64, 49, X, x, 0.57
64, 50, X, w, 0.25
64, 56, X, x, 0.735
64, 59, X, w, 0.2
64, 60, X, x, 0.62
64, 62, X, w, 0.2
64, 63, X, x, 0.62
64, 65, X, x, 0.62
64, 66, X, x, 0.57
64, 72, X, x, 0.62
64, 73, X, x, 0.57
64, 84, X, w, 0.45
64, 85, X, x, 0.535
64, 93, X, w, 0.2
64, 104, X, w, 0.45
64, 105, X, x, 0.535
64, 106, X, x, 0.57
64, 107, X, w, 0.25
64, 119, X, w, 0.2
64, 120, X, w, 0.2
64, 121, X, x, 0.535
64, 123, X, w, 0.45
64, 124, X, w, 0.2
64, 125, X, w, 0.2
64, 126, X, x, 0.535
64, 130, X, w, 0.45
64, 133, X, x, 0.536
64, 139, X, x, 0.535
64, 144, X, x, 0.535
64, 159, X, w, 0.2
64, 161, X, w, 0.2
64, 165, X, w, 0.2
64, 166, X, w, 0.2
64, 171, X, w, 0.2
64, 172, X, w, 0.2
64, 175, X, x, 0.536
64, 180, X, x, 0.735
64, 183, X, x, 0.736
64, 186, X, w, 0.2
64, 189, X, w, 0.2
64, 197, X, w, 0.45
64, 200, X, w, 0.2
64, 201, X, w, 0.2
64, 203, X, x, 0.535
64, 204, X, w, 0.25
64, 205, X, w, 0.2
64, 208, X, x, 0.62
64, 214, X, w, 0.45
64, 216, X, w, 0.2
64, 220, X, x, 0.535
64, 223, X, w, 0.2
64, 234, X, x, 0.535
64, 235, X, w, 0.25
64, 236, X, w, 0.2
64, 237, X, w, 0.2
64, 239, X, x, 0.62
64, 240, X, w, 0.25
64, 241, X, x, 0.62
64, 242, X, w, 0.25
64, 243, X, w, 0.2
64, 253, X, x, 0.735
64, 262, X, x, 0.535
64, 264, X, w, 0.45
64, 270, X, x, 0.535
64, 273, X, w, 0.2
64, 274, X, x, 0.62
64, 276, X, w, 0.45
64, 279, X, x, 0.535
64, 283, X, w, 0.45
64, 284, X, w, 0.2
64, 286, X, w, 0.2
64, 290, X, w, 0.2
64, 295, X, x, 0.535
64, 297, X, w, 0.2
64, 298, X, w, 0.2
64, 303, X, x, 0.62
64, 305, X, x, 0.735
64, 308, X, w, 0.2
64, 310, X, x, 0.62
64, 312, X, w, 0.45
64, 313, X, x, 0.535
64, 320, X, w, 0.45
64, 321, X, w, 0.2
64, 326, X, w, 0.45
64, 331, X, w, 0.2
64, 332, X, w, 0.2
64, 333, X, w, 0.2
64, 339, X, x, 0.535
64, 346, X, x, 0.735
64, 347, X, w, 0.299
64, 350, X, w, 0.2
64, 351, X, x, 0.535
64, 352, X, x, 0.57
64, 360, X, w, 0.2
64, 363, X, w, 0.2
64, 365, X, w, 0.45
64, 366, X, w, 0.2
64, 367, X, w, 0.2
64, 374, X, w, 0.2
64, 380, X, w, 0.2
64, 381, X, w, 0.2
64, 382, X, x, 0.535
64, 383, X, w, 0.25
64, 388, X, x, 0.621
64, 389, X, x, 0.57
64, 391, X, w, 0.45
64, 395, X, x, 0.736
64, 396, X, w, 0.251
64, 397, X, x, 0.62
64, 399, X, w, 0.2
64, 400, X, w, 0.2
64, 403, X, x, 0.621
64, 404, X, w, 0.25
64, 417, X, w, 0.2
64, 418, X, w, 0.2
64, 421, X, x, 0.535
64, 423, X, w, 0.45
64, 430, X, x, 0.535
64, 431, X, x, 0.57
64, 432, X, w, 0.25
64, 434, X, x, 0.62
64, 435, X, w, 0.25
64, 436, X, w, 0.2
64, 437, X, w, 0.2
64, 439, X, w, 0.2
64, 444, X, x, 0.535
64, 445, X, w, 0.25
64, 446, X, w, 0.2
64, 448, X, w, 0.45
64, 451, X, w, 0.2
64, 453, X, x, 0.736
64, 456, X, x, 0.62
64, 457, X, x, 0.57
64, 459, X, x, 0.735
64, 462, X, w, 0.2
64, 464, X, x, 0.62
64, 466, X, w, 0.45
64, 470, X, w, 0.45
64, 472, X, w, 0.2
64, 475, X, w, 0.2
64, 478, X, x, 0.535
64, 483, X, w, 0.45
64, 485, X, w, 0.2
64, 489, X, x, 0.535
64, 493, X, w, 0.2
64, 495, X, x, 0.535
64, 496, X, w, 0.25
64, 497, X, w, 0.2
64, 499, X, x, 0.62
64, 500, X, w, 0.25
64, 501, X, w, 0.2
64, 503, X, w, 0.2
64, 507, X, w, 0.2
64, 511, X, w, 0.45
64, 514, X, w, 0.2
64, 520, X, x, 0.535
64, 526, X, w, 0.2
64, 527, X, x, 0.535
64, 530, X, w, 0.2
64, 531, X, x, 0.535
64, 535, X, x, 0.535
64, 536, X, w, 0.25
64, 537, X, w, 0.2
64, 538, X, w, 0.2
64, 547, X, x, 0.735
64, 549, X, w, 0.2
64, 554, X, w, 0.2
64, 555, X, x, 0.535
64, 556, X, w, 0.25
64, 557, X, w, 0.2
64, 561, X, x, 0.535
64, 567, X, w, 0.2
64, 568, X, w, 0.2
64, 570, X, w, 0.2
64, 571, X, w, 0.2
64, 573, X, w, 0.2
64, 576, X, w, 0.45
64, 579, X, x, 0.535
64, 581, X, w, 0.2
64, 584, X, w, 0.2
64, 585, X, x, 0.62
64, 588, X, w, 0.45
64, 591, X, w, 0.2
64, 592, X, w, 0.2
64, 595, X, x, 0.535
64, 596, X, w, 0.25
64, 602, X, w, 0.45
64, 606, X, x, 0.535
64, 607, X, w, 0.25
64, 608, X, x, 0.62
64, 609, X, x, 0.57
64, 611, X, w, 0.2
64, 612, X, w, 0.2
64, 615, X, w, 0.2
64, 616, X, w, 0.2
64, 617, X, w, 0.2
64, 619, X, w, 0.2
64, 623, X, w, 0.2
64, 624, X, w, 0.2
64, 626, X, w, 0.2
64, 627, X, w, 0.2
64, 629, X, w, 0.2
64, 633, X, w, 0.2
64, 635, X, w, 0.2
64, 638, X, w, 0.2
64, 639, X, w, 0.2
64, 640, X, w, 0.2
64, 642, X, w, 0.2
64, 648, X, w, 0.45
64, 654, X, w, 0.2
64, 657, X, x, 0.735
64, 659, X, w, 0.2
64, 661, X, x, 0.62
64, 662, X, w, 0.25
64, 665, X, w, 0.2
64, 672, X, x, 0.535
64, 675, X, x, 0.736
64, 680, X, w, 0.45
64, 682, X, w, 0.2
64, 685, X, w, 0.2
64, 686, X, w, 0.2
64, 687, X, w, 0.2
64, 689, X, x, 0.735
64, 692, X, w, 0.2
64, 693, X, w, 0.2
64, 696, X, w, 0.2
64, 704, X, w, 0.45
64, 705, X, w, 0.2
64, 707, X, x, 0.735
64, 710, X, w, 0.2
64, 714, X, w, 0.45
64, 717, X, w, 0.45
64, 727, X, x, 0.735
64, 729, X, x, 0.62
64, 732, X, w, 0.2
64, 733, X, w, 0.2
64, 735, X, w, 0.2
64, 740, X, w, 0.2
64, 744, X, w, 0.45
64, 745, X, x, 0.535
64, 748, X, x, 0.535
64, 749, X, w, 0.25
64, 751, X, w, 0.2
64, 752, X, x, 0.62
64, 757, X, x, 0.535
64, 758, X, x, 0.57
64, 762, X, w, 0.2
64, 765, X, w, 0.2
64, 772, X, w, 0.2
64, 773, X, w, 0.2
64, 778, X, x, 0.535
64, 781, X, x, 0.735
64, 782, X, w, 0.298
64, 783, X, w, 0.2
64, 784, X, w, 0.2
64, 785, X, x, 0.62
64, 788, X, w, 0.2
64, 789, X, w, 0.2
64, 790, X, x, 0.535
64, 794, X, w, 0.2
64, 800, X, x, 0.535
64, 801, X, w, 0.25
64, 805, X, w, 0.2
64, 809, X, w, 0.2
64, 811, X, w, 0.2
64, 816, X, w, 0.2
64, 820, X, x, 0.535
64, 824, X, w, 0.2
64, 825, X, w, 0.2
64, 826, X, x, 0.62
64, 827, X, w, 0.25
64, 842, X, x, 0.535
64, 843, X, x, 0.57
64, 845, X, w, 0.2
64, 847, X, w, 0.45
64, 849, X, w, 0.2
64, 853, X, w, 0.2
64, 854, X, x, 0.535
64, 858, X, w, 0.45
64, 861, X, x, 0.535
64, 862, X, w, 0.25
64, 863, X, w, 0.2
64, 864, X, w, 0.2
64, 869, X, w, 0.45
64, 871, X, x, 0.735
64, 872, X, w, 0.297
64, 876, X, w, 0.45
64, 880, X, x, 0.535
64, 883, X, w, 0.2
64, 885, X, x, 0.735
64, 888, X, w, 0.2
64, 889, X, w, 0.2
64, 890, X, w, 0.2
64, 892, X, x, 0.62
64, 894, X, x, 0.62
64, 895, X, x, 0.57
64, 896, X, x, 0.57
64, 897, X, x, 0.57
64, 902, X, w, 0.2
64, 903, X, w, 0.2
64, 907, X, w, 0.2
64, 910, X, w, 0.2
64, 911, X, w, 0.2
64, 912, X, w, 0.2
64, 913, X, w, 0.2
64, 924, X, x, 0.535
64, 930, X, w, 0.45
64, 935, X, w, 0.2
64, 937, X, w, 0.2
64, 938, X, w, 0.2
64, 941, X, w, 0.2
64, 950, X, w, 0.2
64, 952, X, w, 0.2
64, 953, X, w, 0.2
64, 955, X, x, 0.535
64, 957, X, w, 0.2
64, 960, X, w, 0.2
64, 962, X, w, 0.2
64, 963, X, w, 0.2
64, 966, X, w, 0.2
64, 968, X, x, 0.735
64, 969, X, w, 0.29
64, 975, X, w, 0.2
64, 982, X, w, 0.2
64, 986, X, x, 0.535
64, 988, X, w, 0.45
64, 990, X, w, 0.45
64, 992, X, w, 0.2
64, 994, X, x, 0.535
64, 995, X, w, 0.25
64, 996, X, x, 0.62
64, 998, X, w, 0.2
64, 1000, X, w, 0.2
64, 1002, X, w, 0.2
64, 1006, X, w, 0.45
64, 1008, X, w, 0.2
64, 1011, X, w, 0.2
64, 1012, X, x, 0.536
64, 1016, X, w, 0.2
64, 1017, X, w, 0.2
64, 1021, X, w, 0.45
64, 1022, X, x, 0.62
64, 1024, X, x, 0.62
64, 1027, X, w, 0.2
64, 1029, X, w, 0.2
64, 1031, X, w, 0.2
64, 1033, X, x, 0.62
64, 1034, X, w, 0.25
64, 1038, X, x, 0.62
64, 1043, X, x, 0.535
64, 1045, X, w, 0.45
64, 1046, X, x, 0.535
64, 1054, X, w, 0.2
64, 1055, X, w, 0.2
64, 1056, X, w, 0.2
64, 1061, X, w, 0.2
64, 1062, X, w, 0.2
64, 1063, X, w, 0.2
64, 1066, X, w, 0.2
64, 1069, X, x, 0.735
64, 1072, X, w, 0.2
64, 1073, X, w, 0.2
64, 1075, X, w, 0.2
64, 1076, X, w, 0.2
64, 1078, X, w, 0.2
64, 1080, X, w, 0.45
64, 1093, X, w, 0.2
64, 1099, X, x, 0.535
64, 1101, X, x, 0.736
64, 1104, X, w, 0.2
64, 1106, X, w, 0.2
64, 1107, X, x, 0.62
64, 1108, X, w, 0.25
64, 1109, X, w, 0.2
64, 1113, X, w, 0.45
64, 1127, X, w, 0.45
64, 1129, X, x, 0.535
64, 1133, X, x, 0.735
64, 1134, X, w, 0.297
64, 1139, X, w, 0.2
64, 1145, X, w, 0.2
64, 1146, X, w, 0.2
64, 1148, X, x, 0.535
64, 1150, X, w, 0.2
64, 1158, X, w, 0.45
64, 1160, X, x, 0.735
64, 1164, X, x, 0.535
64, 1169, X, w, 0.2
64, 1175, X, x, 0.535
64, 1180, X, w, 0.2
64, 1181, X, w, 0.2
64, 1188, X, w, 0.45
64, 1189, X, w, 0.2
64, 1192, X, w, 0.2
64, 1194, X, w, 0.2
64, 1198, X, w, 0.2
64, 1199, X, w, 0.2
64, 1204, X, w, 0.45
64, 1205, X, x, 0.535
64, 1206, X, x, 0.57
64, 1208, X, x, 0.62
64, 1211, X, x, 0.535
64, 1212, X, w, 0.25
64, 1214, X, w, 0.2
64, 1218, X, w, 0.2
64, 1219, X, x, 0.62
64, 1221, X, w, 0.2
64, 1224, X, w, 0.45
64, 1226, X, w, 0.2
64, 1227, X, x, 0.535
64, 1230, X, w, 0.2
64, 1234, X, w, 0.2
64, 1235, X, w, 0.2
64, 1238, X, w, 0.45
64, 1246, X, x, 0.535
64, 1247, X, w, 0.25
64, 1248, X, x, 0.62
64, 1255, X, w, 0.2
64, 1259, X, w, 0.2
64, 1263, X, x, 0.535
64, 1264, X, w, 0.25
64, 1265, X, w, 0.2
64, 1266, X, w, 0.2
64, 1269, X, w, 0.2
64, 1273, X, w, 0.2
64, 1276, X, w, 0.2
64, 1279, X, w, 0.45
64, 1280, X, x, 0.535
64, 1281, X, w, 0.25
64, 1282, X, w, 0.2
64, 1283, X, w, 0.2
64, 1285, X, x, 0.62
64, 1287, X, w, 0.2
64, 1292, X, w, 0.2
64, 1295, X, w, 0.2
64, 1300, X, w, 0.2
64, 1304, X, w, 0.2
64, 1310, X, x, 0.535
64, 1311, X, w, 0.25
64, 1315, X, w, 0.2
64, 1316, X, w, 0.2
64, 1317, X, w, 0.2
64, 1319, X, x, 0.535
64, 1320, X, w, 0.25
64, 1322, X, w, 0.2
64, 1324, X, w, 0.45
64, 1325, X, x, 0.535
64, 1328, X, w, 0.2
64, 1329, X, w, 0.2
64, 1331, X, w, 0.2
64, 1332, X, x, 0.62
64, 1333, X, w, 0.25
64, 1334, X, w, 0.2
64, 1335, X, w, 0.2
64, 1341, X, w, 0.2
64, 1342, X, x, 0.535
64, 1343, X, w, 0.25
64, 1348, X, w, 0.2
64, 1355, X, w, 0.2
64, 1357, X, w, 0.2
64, 1358, X, w, 0.2
64, 1359, X, w, 0.2
64, 1362, X, w, 0.2
64, 1365, X, w, 0.2
64, 1368, X, w, 0.2
64, 1377, X, w, 0.45
