participant, trial, stimulus, response, rt
60, 5, X, w, 0.45
60, 6, X, w, 0.2
60, 7, X, x, 0.535
60, 8, X, x, 0.57
60, 9, X, x, 0.57
60, 10, X, x, 0.57
60, 13, X, x, 0.536
60, 15, X, w, 0.2
60, 17, X, x, 0.735
60, 20, X, w, 0.45
60, 26, X, x, 0.735
60, 33, X, x, 0.735
60, 34, X, w, 0.297
60, 36, X, x, 0.62
60, 38, X, w, 0.2
60, 40, X, x, 0.62
60, 41, X, x, 0.57
60, 42, X, w, 0.25
60, 45, X, w, 0.2
60, 50, X, x, 0.735
60, 51, X, w, 0.285
60, 58, X, x, 0.535
60, 59, X, x, 0.57
60, 60, X, w, 0.25
60, 66, X, x, 0.535
60, 67, X, w, 0.25
60, 69, X, w, 0.45
60, 70, X, w, 0.2
60, 72, X, w, 0.45
60, 73, X, x, 0.535
60, 74, X, x, 0.57
60, 75, X, w, 0.25
60, 79, X, x, 0.735
60, 81, X, x, 0.735
60, 85, X, x, 0.735
60, 86, X, w, 0.297
60, 92, X, x, 0.535
60, 93, X, x, 0.57
60, 94, X, w, 0.25
60, 95, X, x, 0.62
60, 98, X, w, 0.2
60, 100, X, x, 0.735
60, 101, X, w, 0.296
60, 103, X, w, 0.45
60, 104, X, w, 0.2
60, 108, X, x, 0.535
60, 111, X, x, 0.735
60, 117, X, w, 0.45
60, 124, X, x, 0.735
60, 128, X, x, 0.735
60, 133, X, w, 0.45
60, 134, X, x, 0.535
60, 138, X, x, 0.535
60, 141, X, w, 0.45
60, 142, X, x, 0.535
60, 144, X, x, 0.735
60, 145, X, w, 0.298
60, 148, X, x, 0.735
60, 150, X, x, 0.62
60, 151, X, w, 0.25
60, 152, X, x, 0.62
60, 155, X, w, 0.45
60, 157, X, x, 0.736
60, 159, X, w, 0.2
60, 160, X, x, 0.62
60, 162, X, w, 0.2
60, 164, X, x, 0.62
60, 165, X, x, 0.57
60, 167, X, x, 0.62
60, 173, X, x, 0.735
60, 175, X, w, 0.2
60, 179, X, w, 0.45
60, 180, X, x, 0.535
60, 184, X, w, 0.45
60, 185, X, x, 0.535
60, 186, X, w, 0.25
60, 187, X, x, 0.62
60, 192, X, w, 0.2
60, 194, X, x, 0.735
60, 195, X, w, 0.298
60, 197, X, w, 0.2
60, 198, X, w, 0.2
60, 201, X, w, 0.45
60, 203, X, w, 0.2
60, 204, X, w, 0.2
60, 206, X, x, 0.535
60, 217, X, x, 0.535
60, 220, X, w, 0.2
60, 221, X, w, 0.2
60, 226, X, x, 0.535
60, 233, X, x, 0.535
60, 234, X, x, 0.57
60, 236, X, w, 0.45
60, 237, X, w, 0.2
60, 238, X, x, 0.535
60, 239, X, w, 0.25
60, 242, X, w, 0.2
60, 245, X, w, 0.2
60, 246, X, x, 0.535
60, 250, X, w, 0.45
60, 251, X, w, 0.2
60, 256, X, w, 0.2
60, 262, X, x, 0.735
60, 263, X, w, 0.294
60, 264, X, x, 0.62
60, 265, X, w, 0.25
60, 266, X, x, 0.62
60, 269, X, x, 0.735
60, 271, X, w, 0.2
60, 274, X, w, 0.45
60, 276, X, w, 0.2
60, 278, X, x, 0.535
60, 282, X, w, 0.2
60, 283, X, x, 0.62
60, 285, X, x, 0.62
60, 289, X, w, 0.2
60, 293, X, x, 0.621
60, 297, X, x, 0.735
60, 301, X, x, 0.62
60, 308, X, w, 0.45
60, 309, X, w, 0.2
60, 312, X, x, 0.736
60, 316, X, w, 0.45
60, 317, X, w, 0.2
60, 319, X, w, 0.45
60, 321, X, x, 0.735
60, 323, X, w, 0.2
60, 324, X, x, 0.621
60, 327, X, w, 0.2
60, 330, X, x, 0.535
60, 337, X, x, 0.535
60, 338, X, w, 0.25
60, 340, X, w, 0.2
60, 344, X, w, 0.2
60, 349, X, x, 0.735
60, 350, X, w, 0.297
60, 352, X, x, 0.736
60, 356, X, x, 0.62
60, 362, X, w, 0.2
60, 363, X, w, 0.2
60, 364, X, w, 0.2
60, 373, X, w, 0.45
60, 376, X, w, 0.45
60, 377, X, w, 0.2
60, 379, X, x, 0.735
60, 382, X, w, 0.45
60, 383, X, x, 0.535
60, 384, X, x, 0.57
60, 388, X, x, 0.735
60, 389, X, w, 0.299
60, 396, X, x, 0.535
60, 404, X, x, 0.535
60, 412, X, w, 0.45
60, 414, X, w, 0.45
60, 415, X, x, 0.535
60, 418, X, w, 0.2
60, 422, X, w, 0.2
60, 426, X, w, 0.2
60, 427, X, x, 0.535
60, 431, X, x, 0.535
60, 435, X, w, 0.2
60, 437, X, w, 0.45
60, 439, X, x, 0.735
60, 443, X, w, 0.2
60, 445, X, w, 0.2
60, 447, X, x, 0.735
60, 451, X, x, 0.735
60, 452, X, w, 0.251
60, 454, X, x, 0.735
60, 456, X, w, 0.2
60, 458, X, w, 0.2
60, 469, X, w, 0.45
60, 473, X, w, 0.45
60, 474, X, x, 0.535
60, 476, X, w, 0.2
60, 477, X, w, 0.2
60, 479, X, w, 0.45
60, 481, X, x, 0.535
60, 486, X, x, 0.735
60, 489, X, w, 0.2
60, 490, X, w, 0.2
60, 495, X, w, 0.45
60, 496, X, x, 0.535
60, 498, X, w, 0.2
60, 499, X, w, 0.2
60, 501, X, w, 0.2
60, 502, X, x, 0.62
60, 507, X, w, 0.2
60, 509, X, x, 0.535
60, 510, X, w, 0.25
60, 514, X, x, 0.735
60, 522, X, w, 0.2
60, 523, X, w, 0.2
60, 526, X, w, 0.45
60, 532, X, w, 0.2
60, 534, X, w, 0.2
60, 538, X, w, 0.2
60, 539, X, w, 0.2
60, 545, X, x, 0.535
60, 549, X, x, 0.735
60, 555, X, w, 0.2
60, 556, X, x, 0.535
60, 557, X, w, 0.25
60, 564, X, x, 0.735
60, 567, X, x, 0.62
60, 569, X, x, 0.485
60, 574, X, w, 0.2
60, 577, X, x, 0.535
60, 580, X, x, 0.536
60, 584, X, w, 0.45
60, 586, X, w, 0.2
60, 589, X, w, 0.45
60, 590, X, w, 0.2
60, 596, X, x, 0.736
60, 598, X, w, 0.2
60, 599, X, w, 0.2
60, 606, X, w, 0.45
60, 610, X, x, 0.735
60, 613, X, w, 0.2
60, 615, X, x, 0.62
60, 621, X, x, 0.535
60, 622, X, x, 0.57
60, 625, X, x, 0.735
60, 630, X, w, 0.2
60, 637, X, w, 0.2
60, 639, X, w, 0.2
60, 647, X, w, 0.2
60, 649, X, x, 0.535
60, 652, X, w, 0.2
60, 661, X, w, 0.2
60, 662, X, x, 0.535
60, 664, X, w, 0.2
60, 665, X, x, 0.62
60, 666, X, x, 0.57
60, 668, X, x, 0.735
60, 670, X, x, 0.62
60, 671, X, w, 0.25
60, 677, X, w, 0.2
60, 678, X, x, 0.62
60, 688, X, x, 0.735
60, 689, X, w, 0.296
60, 690, X, x, 0.62
60, 691, X, x, 0.57
60, 693, X, w, 0.2
60, 697, X, w, 0.45
60, 699, X, x, 0.535
60, 701, X, w, 0.2
60, 710, X, w, 0.45
60, 711, X, w, 0.2
60, 713, X, x, 0.535
60, 716, X, w, 0.2
60, 717, X, w, 0.2
60, 719, X, w, 0.2
60, 721, X, x, 0.62
60, 722, X, x, 0.57
60, 723, X, w, 0.25
60, 724, X, w, 0.2
60, 725, X, w, 0.2
60, 728, X, w, 0.45
60, 729, X, w, 0.2
60, 730, X, x, 0.535
60, 731, X, x, 0.57
60, 735, X, x, 0.535
60, 741, X, x, 0.735
60, 742, X, w, 0.295
60, 743, X, w, 0.2
60, 745, X, w, 0.45
60, 751, X, w, 0.45
60, 752, X, w, 0.2
60, 755, X, x, 0.735
60, 758, X, w, 0.2
60, 762, X, w, 0.2
60, 764, X, w, 0.2
60, 765, X, w, 0.2
60, 769, X, w, 0.2
60, 772, X, x, 0.735
60, 773, X, w, 0.3
60, 775, X, w, 0.2
60, 777, X, x, 0.535
60, 781, X, w, 0.2
60, 784, X, w, 0.2
60, 791, X, w, 0.2
60, 794, X, w, 0.2
60, 795, X, w, 0.2
60, 796, X, x, 0.535
60, 797, X, w, 0.25
60, 798, X, w, 0.2
60, 800, X, x, 0.735
60, 809, X, x, 0.735
60, 819, X, w, 0.45
60, 822, X, x, 0.535
60, 823, X, w, 0.25
60, 826, X, x, 0.735
60, 831, X, w, 0.2
60, 835, X, w, 0.2
60, 838, X, w, 0.2
60, 841, X, w, 0.45
60, 849, X, w, 0.2
60, 850, X, w, 0.2
60, 856, X, w, 0.2
60, 858, X, w, 0.2
60, 859, X, x, 0.535
60, 861, X, w, 0.2
60, 864, X, x, 0.62
60, 865, X, w, 0.25
60, 867, X, w, 0.2
60, 868, X, w, 0.2
60, 869, X, x, 0.62
60, 871, X, w, 0.2
60, 877, X, w, 0.2
60, 880, X, w, 0.45
60, 885, X, w, 0.2
60, 887, X, x, 0.735
60, 888, X, w, 0.297
60, 889, X, x, 0.62
60, 890, X, w, 0.25
60, 891, X, w, 0.2
60, 892, X, w, 0.2
60, 893, X, w, 0.2
60, 896, X, x, 0.535
60, 897, X, w, 0.25
60, 899, X, w, 0.2
60, 905, X, x, 0.736
60, 906, X, w, 0.296
60, 907, X, w, 0.2
60, 913, X, w, 0.2
60, 914, X, w, 0.2
60, 915, X, w, 0.2
60, 916, X, w, 0.2
60, 918, X, w, 0.2
60, 919, X, x, 0.535
60, 923, X, w, 0.45
60, 924, X, w, 0.2
60, 927, X, x, 0.535
60, 934, X, w, 0.2
60, 935, X, w, 0.2
60, 940, X, x, 0.535
60, 946, X, w, 0.2
60, 948, X, w, 0.2
60, 950, X, w, 0.2
60, 952, X, w, 0.2
60, 954, X, x, 0.735
60, 957, X, x, 0.621
60, 959, X, x, 0.62
60, 960, X, w, 0.25
60, 961, X, w, 0.2
60, 966, X, w, 0.2
60, 969, X, w, 0.2
60, 971, X, w, 0.2
60, 972, X, x, 0.62
60, 977, X, w, 0.2
60, 978, X, w, 0.2
60, 980, X, w, 0.2
60, 986, X, x, 0.735
60, 988, X, x, 0.62
60, 989, X, w, 0.25
60, 991, X, w, 0.2
60, 996, X, x, 0.535
60, 1000, X, x, 0.535
60, 1005, X, w, 0.2
60, 1006, X, w, 0.2
60, 1008, X, x, 0.62
60, 1011, X, x, 0.735
60, 1012, X, w, 0.297
60, 1013, X, w, 0.2
60, 1018, X, w, 0.2
60, 1021, X, w, 0.2
60, 1024, X, w, 0.45
60, 1026, X, w, 0.2
60, 1030, X, w, 0.2
60, 1034, X, w, 0.2
60, 1041, X, w, 0.2
60, 1044, X, w, 0.2
60, 1045, X, w, 0.2
60, 1049, X, w, 0.2
60, 1052, X, w, 0.2
60, 1055, X, x, 0.535
60, 1056, X, w, 0.25
60, 1060, X, x, 0.62
60, 1061, X, w, 0.25
60, 1065, X, w, 0.2
60, 1070, X, w, 0.2
60, 1074, X, w, 0.45
60, 1080, X, w, 0.45
60, 1082, X, w, 0.2
60, 1083, X, w, 0.2
60, 1085, X, w, 0.2
60, 1086, X, w, 0.2
60, 1090, X, w, 0.2
60, 1091, X, w, 0.2
60, 1097, X, w, 0.2
60, 1105, X, w, 0.2
60, 1109, X, w, 0.2
60, 1119, X, w, 0.45
60, 1127, X, w, 0.2
60, 1129, X, w, 0.45
60, 1132, X, x, 0.535
60, 1133, X, x, 0.57
60, 1135, X, x, 0.735
60, 1139, X, w, 0.45
60, 1140, X, w, 0.2
60, 1141, X, w, 0.2
60, 1142, X, w, 0.2
60, 1144, X, w, 0.2
60, 1147, X, w, 0.2
60, 1151, X, w, 0.45
60, 1155, X, w, 0.2
60, 1168, X, w, 0.2
60, 1170, X, w, 0.45
60, 1172, X, x, 0.62
60, 1173, X, w, 0.25
60, 1174, X, w, 0.2
60, 1180, X, w, 0.2
60, 1181, X, w, 0.2
60, 1186, X, w, 0.45
60, 1191, X, x, 0.535
60, 1194, X, w, 0.45
60, 1195, X, w, 0.2
60, 1196, X, w, 0.2
60, 1199, X, w, 0.2
60, 1209, X, w, 0.45
60, 1213, X, w, 0.45
60, 1216, X, x, 0.535
60, 1219, X, w, 0.2
60, 1220, X, x, 0.62
60, 1229, X, x, 0.535
60, 1232, X, x, 0.535
60, 1235, X, w, 0.2
60, 1236, X, w, 0.2
60, 1237, X, w, 0.2
60, 1249, X, w, 0.2
60, 1250, X, w, 0.2
60, 1254, X, w, 0.2
60, 1256, X, w, 0.2
60, 1257, X, w, 0.2
60, 1258, X, w, 0.2
60, 1260, X, x, 0.535
60, 1261, X, x, 0.57
60, 1266, X, w, 0.2
60, 1267, X, w, 0.2
60, 1268, X, w, 0.2
60, 1272, X, w, 0.45
60, 1274, X, w, 0.2
60, 1275, X, x, 0.535
60, 1276, X, w, 0.25
60, 1279, X, w, 0.2
60, 1281, X, w, 0.2
60, 1282, X, w, 0.2
60, 1287, X, w, 0.2
60, 1290, X, x, 0.535
60, 1294, X, w, 0.2
60, 1295, X, w, 0.2
60, 1299, X, w, 0.2
60, 1300, X, w, 0.2
60, 1303, X, x, 0.535
60, 1306, X, x, 0.735
60, 1307, X, w, 0.299
60, 1310, X, w, 0.2
60, 1312, X, x, 0.62
60, 1313, X, x, 0.57
60, 1314, X, w, 0.25
60, 1318, X, w, 0.2
60, 1326, X, w, 0.2
60, 1329, X, x, 0.535
60, 1330, X, w, 0.25
60, 1336, X, w, 0.2
60, 1338, X, x, 0.621
60, 1340, X, w, 0.2
60, 1341, X, w, 0.2
60, 1347, X, x, 0.62
60, 1352, X, x, 0.62
60, 1353, X, x, 0.57
60, 1355, X, w, 0.2
60, 1356, X, w, 0.2
60, 1364, X, x, 0.535
60, 1367, X, w, 0.2
60, 1376, X, w, 0.2
60, 1378, X, w, 0.2
60, 1379, X, w, 0.2
60, 1380, X, w, 0.2
