participant, trial, stimulus, response, rt
78, 5, X, x, 0.735
78, 7, X, w, 0.2
78, 8, X, w, 0.2
78, 9, X, x, 0.62
78, 11, X, w, 0.45
78, 12, X, x, 0.535
78, 13, X, x, 0.57
78, 14, X, w, 0.25
78, 19, X, w, 0.45
78, 21, X, x, 0.535
78, 23, X, w, 0.2
78, 30, X, w, 0.2
78, 33, X, w, 0.2
78, 35, X, w, 0.45
78, 40, X, w, 0.45
78, 43, X, x, 0.535
78, 44, X, w, 0.25
78, 45, X, w, 0.2
78, 46, X, w, 0.2
78, 48, X, w, 0.2
78, 50, X, w, 0.2
78, 51, X, w, 0.2
78, 55, X, x, 0.535
78, 60, X, w, 0.45
78, 62, X, w, 0.2
78, 68, X, x, 0.735
78, 69, X, w, 0.295
78, 70, X, w, 0.2
78, 75, X, x, 0.736
78, 76, X, w, 0.288
78, 77, X, x, 0.62
78, 78, X, x, 0.57
78, 82, X, x, 0.735
78, 84, X, w, 0.2
78, 85, X, w, 0.2
78, 88, X, x, 0.735
78, 94, X, x, 0.62
78, 98, X, w, 0.45
78, 107, X, x, 0.736
78, 109, X, w, 0.25
78, 111, X, x, 0.62
78, 116, X, x, 0.535
78, 119, X, x, 0.735
78, 121, X, x, 0.62
78, 128, X, w, 0.2
78, 129, X, w, 0.2
78, 133, X, x, 0.735
78, 135, X, w, 0.2
78, 138, X, w, 0.2
78, 143, X, x, 0.735
78, 144, X, w, 0.299
78, 154, X, w, 0.45
78, 156, X, w, 0.45
78, 162, X, x, 0.735
78, 163, X, w, 0.298
78, 166, X, w, 0.2
78, 168, X, w, 0.2
78, 169, X, w, 0.2
78, 170, X, w, 0.2
78, 171, X, w, 0.2
78, 172, X, w, 0.2
78, 179, X, w, 0.2
78, 180, X, w, 0.2
78, 182, X, w, 0.45
78, 185, X, x, 0.535
78, 186, X, x, 0.57
78, 188, X, w, 0.45
78, 199, X, w, 0.45
78, 200, X, x, 0.535
78, 201, X, x, 0.57
78, 204, X, w, 0.2
78, 206, X, w, 0.2
78, 208, X, w, 0.2
78, 209, X, x, 0.62
78, 211, X, x, 0.735
78, 216, X, x, 0.62
78, 217, X, x, 0.57
78, 218, X, x, 0.57
78, 220, X, w, 0.2
78, 221, X, x, 0.62
78, 222, X, w, 0.25
78, 224, X, w, 0.2
78, 225, X, w, 0.2
78, 226, X, w, 0.2
78, 229, X, w, 0.45
78, 237, X, x, 0.735
78, 238, X, w, 0.299
78, 241, X, x, 0.62
78, 242, X, w, 0.25
78, 244, X, w, 0.45
78, 248, X, w, 0.2
78, 249, X, x, 0.535
78, 250, X, x, 0.57
78, 253, X, x, 0.62
78, 254, X, x, 0.57
78, 255, X, w, 0.25
78, 259, X, x, 0.535
78, 264, X, x, 0.535
78, 265, X, w, 0.25
78, 268, X, w, 0.45
78, 271, X, x, 0.535
78, 272, X, w, 0.25
78, 275, X, x, 0.735
78, 276, X, w, 0.297
78, 279, X, w, 0.2
78, 280, X, w, 0.2
78, 284, X, w, 0.45
78, 285, X, w, 0.2
78, 289, X, x, 0.535
78, 290, X, x, 0.57
78, 291, X, w, 0.25
78, 292, X, x, 0.62
78, 294, X, x, 0.62
78, 296, X, x, 0.735
78, 298, X, w, 0.2
78, 300, X, x, 0.62
78, 305, X, w, 0.45
78, 306, X, w, 0.2
78, 312, X, w, 0.45
78, 316, X, w, 0.45
78, 317, X, x, 0.535
78, 318, X, x, 0.57
78, 322, X, w, 0.2
78, 328, X, w, 0.2
78, 329, X, x, 0.535
78, 335, X, w, 0.2
78, 336, X, x, 0.535
78, 338, X, x, 0.735
78, 339, X, w, 0.299
78, 342, X, x, 0.62
78, 343, X, w, 0.25
78, 347, X, w, 0.2
78, 348, X, w, 0.2
78, 353, X, w, 0.2
78, 354, X, x, 0.535
78, 359, X, x, 0.535
78, 360, X, x, 0.57
78, 362, X, w, 0.2
78, 366, X, w, 0.45
78, 367, X, w, 0.2
78, 375, X, x, 0.535
78, 383, X, w, 0.2
78, 385, X, w, 0.2
78, 388, X, w, 0.2
78, 391, X, x, 0.535
78, 395, X, x, 0.535
78, 396, X, w, 0.25
78, 402, X, w, 0.45
78, 406, X, w, 0.45
78, 409, X, x, 0.535
78, 410, X, w, 0.25
78, 411, X, w, 0.2
78, 412, X, w, 0.2
78, 413, X, x, 0.62
78, 414, X, w, 0.25
78, 419, X, w, 0.2
78, 420, X, x, 0.535
78, 421, X, w, 0.25
78, 425, X, x, 0.62
78, 427, X, x, 0.735
78, 434, X, w, 0.2
78, 437, X, w, 0.45
78, 442, X, w, 0.2
78, 447, X, w, 0.2
78, 449, X, w, 0.2
78, 451, X, w, 0.45
78, 458, X, w, 0.45
78, 463, X, w, 0.2
78, 464, X, w, 0.2
78, 465, X, w, 0.2
78, 466, X, x, 0.535
78, 469, X, w, 0.45
78, 471, X, w, 0.45
78, 472, X, w, 0.2
78, 475, X, w, 0.45
78, 476, X, w, 0.2
78, 479, X, w, 0.2
78, 482, X, w, 0.45
78, 483, X, w, 0.2
78, 485, X, x, 0.735
78, 489, X, x, 0.535
78, 490, X, x, 0.57
78, 492, X, x, 0.735
78, 497, X, w, 0.2
78, 503, X, w, 0.2
78, 507, X, x, 0.535
78, 511, X, w, 0.45
78, 514, X, x, 0.535
78, 515, X, w, 0.25
78, 516, X, w, 0.2
78, 522, X, w, 0.45
78, 526, X, w, 0.45
78, 533, X, x, 0.536
78, 538, X, w, 0.2
78, 539, X, w, 0.2
78, 540, X, w, 0.2
78, 542, X, w, 0.2
78, 548, X, w, 0.2
78, 551, X, w, 0.2
78, 554, X, w, 0.2
78, 562, X, w, 0.2
78, 567, X, w, 0.2
78, 568, X, x, 0.535
78, 569, X, x, 0.57
78, 570, X, w, 0.25
78, 572, X, w, 0.2
78, 582, X, x, 0.535
78, 586, X, w, 0.45
78, 588, X, x, 0.735
78, 592, X, w, 0.2
78, 599, X, w, 0.45
78, 608, X, x, 0.535
78, 615, X, x, 0.535
78, 621, X, w, 0.45
78, 628, X, w, 0.2
78, 631, X, w, 0.2
78, 634, X, w, 0.45
78, 635, X, w, 0.2
78, 639, X, w, 0.2
78, 648, X, w, 0.45
78, 650, X, w, 0.2
78, 655, X, w, 0.45
78, 658, X, x, 0.535
78, 660, X, x, 0.735
78, 664, X, w, 0.2
78, 665, X, w, 0.2
78, 666, X, x, 0.535
78, 667, X, w, 0.25
78, 668, X, w, 0.2
78, 669, X, w, 0.2
78, 670, X, w, 0.2
78, 673, X, w, 0.2
78, 674, X, w, 0.2
78, 676, X, w, 0.2
78, 677, X, w, 0.2
78, 679, X, w, 0.2
78, 682, X, w, 0.45
78, 683, X, w, 0.2
78, 693, X, w, 0.45
78, 695, X, x, 0.736
78, 697, X, x, 0.62
78, 706, X, w, 0.2
78, 707, X, w, 0.2
78, 711, X, w, 0.2
78, 712, X, x, 0.535
78, 718, X, x, 0.536
78, 719, X, w, 0.25
78, 724, X, w, 0.2
78, 728, X, w, 0.2
78, 731, X, w, 0.2
78, 732, X, w, 0.2
78, 733, X, w, 0.2
78, 734, X, w, 0.2
78, 737, X, w, 0.2
78, 741, X, x, 0.535
78, 745, X, w, 0.45
78, 747, X, x, 0.62
78, 749, X, w, 0.2
78, 760, X, x, 0.535
78, 764, X, w, 0.2
78, 767, X, w, 0.45
78, 771, X, w, 0.2
78, 773, X, w, 0.2
78, 782, X, w, 0.2
78, 789, X, w, 0.2
78, 790, X, w, 0.2
78, 796, X, w, 0.45
78, 804, X, w, 0.45
78, 805, X, x, 0.535
78, 806, X, w, 0.25
78, 810, X, x, 0.62
78, 811, X, w, 0.25
78, 812, X, w, 0.2
78, 814, X, x, 0.62
78, 818, X, w, 0.2
78, 819, X, w, 0.2
78, 821, X, x, 0.621
78, 822, X, w, 0.25
78, 829, X, x, 0.62
78, 851, X, w, 0.2
78, 853, X, w, 0.45
78, 855, X, w, 0.2
78, 858, X, w, 0.2
78, 861, X, w, 0.45
78, 862, X, w, 0.2
78, 863, X, x, 0.535
78, 867, X, w, 0.2
78, 868, X, x, 0.621
78, 872, X, w, 0.2
78, 874, X, x, 0.535
78, 875, X, w, 0.25
78, 876, X, w, 0.2
78, 877, X, x, 0.62
78, 879, X, w, 0.2
78, 884, X, x, 0.735
78, 896, X, x, 0.535
78, 897, X, x, 0.57
78, 902, X, w, 0.2
78, 903, X, w, 0.2
78, 908, X, w, 0.2
78, 909, X, w, 0.2
78, 910, X, x, 0.535
78, 911, X, w, 0.25
78, 914, X, w, 0.2
78, 917, X, w, 0.2
78, 920, X, w, 0.2
78, 925, X, x, 0.535
78, 929, X, w, 0.2
78, 932, X, w, 0.2
78, 934, X, x, 0.62
78, 936, X, w, 0.25
78, 938, X, w, 0.2
78, 941, X, x, 0.735
78, 946, X, w, 0.2
78, 951, X, w, 0.2
78, 952, X, w, 0.2
78, 955, X, w, 0.45
78, 957, X, w, 0.45
78, 960, X, w, 0.2
78, 961, X, w, 0.2
78, 962, X, w, 0.2
78, 964, X, w, 0.2
78, 965, X, w, 0.2
78, 968, X, w, 0.2
78, 970, X, w, 0.2
78, 971, X, x, 0.535
78, 976, X, w, 0.2
78, 980, X, w, 0.2
78, 982, X, x, 0.535
78, 987, X, x, 0.536
78, 990, X, x, 0.535
78, 994, X, x, 0.536
78, 998, X, x, 0.535
78, 1000, X, x, 0.735
78, 1003, X, x, 0.735
78, 1008, X, w, 0.2
78, 1009, X, w, 0.2
78, 1014, X, w, 0.2
78, 1016, X, w, 0.45
78, 1018, X, x, 0.735
78, 1019, X, w, 0.298
78, 1020, X, x, 0.62
78, 1021, X, w, 0.25
78, 1022, X, w, 0.2
78, 1027, X, w, 0.2
78, 1029, X, w, 0.2
78, 1032, X, w, 0.2
78, 1035, X, w, 0.45
78, 1036, X, w, 0.2
78, 1039, X, w, 0.45
78, 1040, X, w, 0.2
78, 1042, X, w, 0.2
78, 1045, X, w, 0.45
78, 1046, X, w, 0.2
78, 1047, X, w, 0.2
78, 1049, X, w, 0.2
78, 1055, X, w, 0.2
78, 1056, X, w, 0.2
78, 1058, X, w, 0.2
78, 1061, X, w, 0.2
78, 1062, X, w, 0.2
78, 1064, X, w, 0.45
78, 1065, X, w, 0.2
78, 1066, X, w, 0.2
78, 1068, X, w, 0.45
78, 1071, X, w, 0.2
78, 1072, X, x, 0.535
78, 1073, X, w, 0.25
78, 1076, X, x, 0.62
78, 1077, X, w, 0.25
78, 1081, X, x, 0.535
78, 1083, X, w, 0.2
78, 1087, X, w, 0.2
78, 1095, X, w, 0.2
78, 1097, X, w, 0.2
78, 1098, X, w, 0.2
78, 1101, X, x, 0.535
78, 1105, X, x, 0.735
78, 1110, X, w, 0.45
78, 1111, X, w, 0.2
78, 1115, X, w, 0.2
78, 1118, X, x, 0.735
78, 1119, X, w, 0.298
78, 1125, X, x, 0.62
78, 1127, X, w, 0.2
78, 1130, X, x, 0.62
78, 1131, X, w, 0.25
78, 1132, X, x, 0.62
78, 1133, X, w, 0.25
78, 1134, X, w, 0.2
78, 1139, X, x, 0.535
78, 1145, X, x, 0.536
78, 1148, X, w, 0.2
78, 1152, X, w, 0.2
78, 1153, X, x, 0.535
78, 1156, X, w, 0.2
78, 1157, X, x, 0.62
78, 1159, X, w, 0.45
78, 1164, X, x, 0.536
78, 1166, X, x, 0.62
78, 1170, X, w, 0.2
78, 1172, X, w, 0.2
78, 1174, X, w, 0.2
78, 1175, X, w, 0.2
78, 1176, X, w, 0.2
78, 1178, X, w, 0.2
78, 1179, X, w, 0.2
78, 1181, X, x, 0.62
78, 1183, X, w, 0.2
78, 1184, X, w, 0.2
78, 1188, X, w, 0.2
78, 1195, X, x, 0.536
78, 1197, X, w, 0.45
78, 1198, X, w, 0.2
78, 1201, X, w, 0.2
78, 1207, X, w, 0.2
78, 1208, X, w, 0.2
78, 1209, X, x, 0.535
78, 1213, X, w, 0.2
78, 1221, X, x, 0.62
78, 1222, X, w, 0.25
78, 1225, X, w, 0.2
78, 1226, X, w, 0.2
78, 1228, X, w, 0.2
78, 1231, X, w, 0.2
78, 1232, X, w, 0.2
78, 1235, X, w, 0.2
78, 1237, X, x, 0.735
78, 1240, X, w, 0.45
78, 1242, X, w, 0.2
78, 1252, X, x, 0.735
78, 1255, X, w, 0.2
78, 1258, X, x, 0.62
78, 1266, X, w, 0.2
78, 1268, X, w, 0.2
78, 1270, X, w, 0.2
78, 1271, X, x, 0.535
78, 1272, X, w, 0.25
78, 1275, X, x, 0.62
78, 1277, X, w, 0.25
78, 1280, X, w, 0.2
78, 1281, X, w, 0.2
78, 1285, X, x, 0.535
78, 1291, X, w, 0.45
78, 1296, X, w, 0.2
78, 1304, X, w, 0.2
78, 1305, X, w, 0.2
78, 1307, X, w, 0.2
78, 1308, X, w, 0.2
78, 1309, X, w, 0.2
78, 1312, X, w, 0.2
78, 1315, X, w, 0.45
78, 1317, X, w, 0.2
78, 1320, X, w, 0.2
78, 1322, X, w, 0.45
78, 1323, X, x, 0.535
78, 1324, X, w, 0.25
78, 1325, X, w, 0.2
78, 1328, X, x, 0.62
78, 1332, X, w, 0.2
78, 1335, X, w, 0.45
78, 1337, X, w, 0.2
78, 1338, X, w, 0.2
78, 1339, X, w, 0.2
78, 1346, X, x, 0.536
78, 1349, X, x, 0.62
78, 1351, X, w, 0.2
78, 1352, X, w, 0.2
78, 1354, X, x, 0.62
78, 1356, X, x, 0.735
78, 1358, X, x, 0.62
78, 1359, X, w, 0.25
78, 1360, X, w, 0.2
78, 1364, X, w, 0.45
78, 1367, X, w, 0.2
78, 1371, X, w, 0.2
78, 1375, X, w, 0.2
78, 1377, X, w, 0.2
78, 1378, X, w, 0.2
78, 1379, X, w, 0.2
