participant, trial, stimulus, response, rt
74, 2, X, x, 0.735
74, 3, X, w, 0.296
74, 7, X, x, 0.535
74, 10, X, x, 0.535
74, 11, X, x, 0.57
74, 13, X, x, 0.735
74, 14, X, w, 0.296
74, 15, X, x, 0.62
74, 20, X, x, 0.735
74, 21, X, w, 0.287
74, 23, X, x, 0.62
74, 25, X, x, 0.62
74, 26, X, w, 0.25
74, 29, X, w, 0.45
74, 34, X, w, 0.45
74, 38, X, x, 0.735
74, 39, X, w, 0.296
74, 48, X, w, 0.2
74, 51, X, x, 0.735
74, 53, X, w, 0.2
74, 55, X, x, 0.62
74, 57, X, x, 0.735
74, 65, X, w, 0.2
74, 69, X, x, 0.535
74, 72, X, x, 0.535
74, 73, X, x, 0.57
74, 74, X, x, 0.57
74, 76, X, x, 0.621
74, 77, X, w, 0.25
74, 79, X, w, 0.2
74, 80, X, x, 0.62
74, 83, X, w, 0.45
74, 86, X, x, 0.535
74, 88, X, w, 0.45
74, 91, X, w, 0.2
74, 96, X, w, 0.2
74, 97, X, w, 0.2
74, 98, X, w, 0.2
74, 102, X, x, 0.735
74, 104, X, x, 0.62
74, 105, X, w, 0.25
74, 107, X, w, 0.2
74, 109, X, w, 0.2
74, 111, X, w, 0.45
74, 112, X, w, 0.2
74, 118, X, x, 0.735
74, 119, X, w, 0.298
74, 122, X, w, 0.2
74, 124, X, w, 0.2
74, 125, X, w, 0.2
74, 134, X, w, 0.45
74, 135, X, x, 0.535
74, 136, X, x, 0.57
74, 137, X, x, 0.57
74, 144, X, w, 0.2
74, 145, X, w, 0.2
74, 146, X, x, 0.536
74, 147, X, w, 0.25
74, 148, X, x, 0.62
74, 153, X, x, 0.735
74, 154, X, w, 0.296
74, 162, X, w, 0.45
74, 163, X, w, 0.2
74, 164, X, x, 0.535
74, 170, X, x, 0.535
74, 171, X, w, 0.25
74, 173, X, x, 0.735
74, 174, X, w, 0.298
74, 181, X, w, 0.2
74, 182, X, w, 0.2
74, 184, X, w, 0.2
74, 185, X, w, 0.2
74, 186, X, w, 0.2
74, 187, X, w, 0.2
74, 191, X, x, 0.735
74, 192, X, w, 0.299
74, 197, X, x, 0.735
74, 200, X, x, 0.62
74, 202, X, x, 0.735
74, 204, X, w, 0.2
74, 206, X, x, 0.535
74, 214, X, w, 0.2
74, 221, X, w, 0.2
74, 224, X, x, 0.735
74, 225, X, w, 0.298
74, 236, X, x, 0.736
74, 237, X, w, 0.299
74, 240, X, w, 0.2
74, 242, X, w, 0.2
74, 244, X, w, 0.2
74, 245, X, x, 0.62
74, 246, X, w, 0.25
74, 247, X, x, 0.62
74, 249, X, w, 0.2
74, 250, X, x, 0.62
74, 251, X, x, 0.57
74, 253, X, x, 0.735
74, 261, X, x, 0.535
74, 265, X, w, 0.2
74, 267, X, w, 0.2
74, 268, X, x, 0.62
74, 270, X, w, 0.25
74, 273, X, w, 0.2
74, 276, X, w, 0.2
74, 277, X, x, 0.535
74, 279, X, x, 0.62
74, 285, X, x, 0.536
74, 287, X, w, 0.45
74, 294, X, x, 0.535
74, 295, X, w, 0.25
74, 297, X, x, 0.62
74, 299, X, w, 0.2
74, 301, X, w, 0.45
74, 304, X, x, 0.535
74, 311, X, w, 0.45
74, 320, X, x, 0.735
74, 321, X, w, 0.298
74, 327, X, w, 0.2
74, 328, X, w, 0.2
74, 332, X, w, 0.2
74, 334, X, w, 0.2
74, 341, X, x, 0.535
74, 343, X, x, 0.62
74, 344, X, x, 0.57
74, 348, X, w, 0.2
74, 358, X, w, 0.45
74, 359, X, w, 0.2
74, 360, X, w, 0.2
74, 367, X, x, 0.735
74, 369, X, w, 0.2
74, 372, X, w, 0.2
74, 373, X, w, 0.2
74, 375, X, w, 0.2
74, 376, X, x, 0.62
74, 377, X, x, 0.57
74, 379, X, w, 0.45
74, 380, X, w, 0.2
74, 382, X, w, 0.2
74, 388, X, w, 0.2
74, 395, X, w, 0.2
74, 401, X, w, 0.2
74, 402, X, w, 0.2
74, 403, X, w, 0.2
74, 408, X, x, 0.535
74, 409, X, w, 0.25
74, 410, X, w, 0.2
74, 411, X, w, 0.2
74, 412, X, x, 0.62
74, 413, X, w, 0.25
74, 416, X, x, 0.62
74, 419, X, w, 0.45
74, 420, X, w, 0.2
74, 422, X, x, 0.535
74, 423, X, x, 0.57
74, 424, X, x, 0.57
74, 425, X, w, 0.25
74, 438, X, x, 0.535
74, 440, X, w, 0.25
74, 444, X, w, 0.45
74, 445, X, w, 0.2
74, 446, X, w, 0.2
74, 447, X, x, 0.535
74, 449, X, w, 0.2
74, 455, X, w, 0.45
74, 456, X, w, 0.2
74, 463, X, w, 0.45
74, 465, X, w, 0.2
74, 468, X, w, 0.2
74, 469, X, w, 0.2
74, 473, X, w, 0.45
74, 474, X, w, 0.2
74, 475, X, x, 0.535
74, 478, X, w, 0.45
74, 484, X, w, 0.2
74, 486, X, x, 0.535
74, 487, X, w, 0.25
74, 490, X, w, 0.45
74, 491, X, w, 0.2
74, 493, X, w, 0.2
74, 494, X, w, 0.2
74, 496, X, x, 0.535
74, 502, X, w, 0.2
74, 503, X, x, 0.535
74, 504, X, w, 0.25
74, 506, X, w, 0.2
74, 507, X, x, 0.62
74, 511, X, w, 0.45
74, 514, X, x, 0.535
74, 518, X, w, 0.2
74, 520, X, x, 0.62
74, 522, X, w, 0.45
74, 526, X, x, 0.735
74, 529, X, w, 0.2
74, 534, X, w, 0.45
74, 535, X, x, 0.535
74, 539, X, x, 0.621
74, 544, X, x, 0.536
74, 545, X, x, 0.57
74, 547, X, x, 0.62
74, 548, X, x, 0.571
74, 549, X, w, 0.25
74, 553, X, w, 0.2
74, 557, X, x, 0.62
74, 561, X, w, 0.45
74, 565, X, w, 0.45
74, 566, X, x, 0.535
74, 567, X, w, 0.25
74, 574, X, w, 0.2
74, 578, X, x, 0.735
74, 580, X, x, 0.62
74, 581, X, w, 0.25
74, 583, X, w, 0.2
74, 585, X, w, 0.2
74, 587, X, x, 0.62
74, 589, X, w, 0.2
74, 590, X, w, 0.2
74, 591, X, w, 0.2
74, 592, X, w, 0.2
74, 593, X, w, 0.2
74, 595, X, w, 0.2
74, 596, X, w, 0.2
74, 599, X, w, 0.2
74, 600, X, x, 0.62
74, 603, X, w, 0.2
74, 604, X, x, 0.62
74, 609, X, w, 0.2
74, 612, X, x, 0.735
74, 613, X, w, 0.296
74, 614, X, w, 0.2
74, 616, X, w, 0.45
74, 619, X, w, 0.45
74, 620, X, w, 0.2
74, 621, X, w, 0.2
74, 624, X, x, 0.735
74, 640, X, w, 0.2
74, 642, X, w, 0.2
74, 644, X, x, 0.62
74, 645, X, x, 0.57
74, 646, X, w, 0.25
74, 647, X, x, 0.62
74, 648, X, w, 0.25
74, 650, X, x, 0.62
74, 651, X, x, 0.57
74, 652, X, x, 0.57
74, 654, X, w, 0.45
74, 657, X, w, 0.2
74, 658, X, w, 0.2
74, 661, X, x, 0.535
74, 662, X, w, 0.25
74, 665, X, x, 0.736
74, 670, X, w, 0.45
74, 676, X, w, 0.45
74, 678, X, w, 0.45
74, 681, X, x, 0.735
74, 682, X, w, 0.296
74, 683, X, w, 0.2
74, 684, X, x, 0.62
74, 686, X, w, 0.2
74, 692, X, w, 0.45
74, 695, X, x, 0.535
74, 699, X, x, 0.62
74, 700, X, x, 0.57
74, 703, X, w, 0.2
74, 707, X, w, 0.2
74, 709, X, w, 0.45
74, 710, X, x, 0.535
74, 714, X, x, 0.735
74, 717, X, w, 0.45
74, 725, X, x, 0.735
74, 728, X, x, 0.62
74, 729, X, w, 0.25
74, 734, X, w, 0.2
74, 736, X, w, 0.2
74, 738, X, w, 0.2
74, 740, X, w, 0.2
74, 741, X, w, 0.2
74, 743, X, w, 0.2
74, 750, X, w, 0.2
74, 752, X, w, 0.45
74, 756, X, x, 0.535
74, 765, X, w, 0.45
74, 767, X, w, 0.2
74, 772, X, w, 0.2
74, 773, X, w, 0.2
74, 776, X, x, 0.535
74, 781, X, x, 0.735
74, 782, X, w, 0.297
74, 786, X, w, 0.2
74, 788, X, w, 0.45
74, 793, X, x, 0.535
74, 794, X, w, 0.25
74, 798, X, x, 0.62
74, 799, X, x, 0.57
74, 800, X, x, 0.57
74, 801, X, x, 0.57
74, 802, X, w, 0.25
74, 809, X, w, 0.2
74, 819, X, w, 0.2
74, 822, X, w, 0.45
74, 823, X, x, 0.535
74, 829, X, w, 0.2
74, 830, X, x, 0.62
74, 831, X, w, 0.25
74, 832, X, w, 0.2
74, 835, X, w, 0.2
74, 837, X, w, 0.2
74, 844, X, w, 0.45
74, 849, X, x, 0.535
74, 861, X, w, 0.2
74, 863, X, w, 0.2
74, 864, X, w, 0.2
74, 873, X, w, 0.45
74, 877, X, w, 0.45
74, 880, X, w, 0.2
74, 889, X, w, 0.2
74, 898, X, w, 0.2
74, 902, X, w, 0.2
74, 903, X, w, 0.2
74, 904, X, x, 0.535
74, 906, X, w, 0.2
74, 907, X, w, 0.2
74, 909, X, x, 0.735
74, 911, X, w, 0.2
74, 917, X, w, 0.2
74, 921, X, x, 0.535
74, 923, X, w, 0.2
74, 934, X, w, 0.2
74, 935, X, x, 0.535
74, 936, X, w, 0.25
74, 937, X, w, 0.2
74, 939, X, w, 0.2
74, 941, X, w, 0.2
74, 947, X, w, 0.2
74, 950, X, w, 0.45
74, 955, X, w, 0.2
74, 958, X, w, 0.2
74, 961, X, x, 0.535
74, 962, X, w, 0.25
74, 967, X, w, 0.45
74, 972, X, x, 0.535
74, 973, X, x, 0.57
74, 977, X, w, 0.2
74, 983, X, w, 0.45
74, 986, X, w, 0.45
74, 987, X, x, 0.535
74, 988, X, w, 0.25
74, 990, X, w, 0.2
74, 994, X, w, 0.2
74, 995, X, x, 0.621
74, 997, X, x, 0.621
74, 1004, X, w, 0.45
74, 1007, X, w, 0.2
74, 1008, X, w, 0.2
74, 1009, X, w, 0.2
74, 1021, X, w, 0.2
74, 1022, X, w, 0.2
74, 1023, X, w, 0.2
74, 1025, X, w, 0.45
74, 1028, X, w, 0.2
74, 1032, X, w, 0.45
74, 1033, X, w, 0.2
74, 1037, X, w, 0.2
74, 1041, X, x, 0.535
74, 1046, X, w, 0.2
74, 1047, X, x, 0.535
74, 1048, X, x, 0.57
74, 1049, X, w, 0.25
74, 1050, X, x, 0.62
74, 1051, X, w, 0.25
74, 1056, X, w, 0.45
74, 1058, X, w, 0.2
74, 1062, X, w, 0.2
74, 1063, X, w, 0.2
74, 1064, X, w, 0.2
74, 1070, X, w, 0.2
74, 1074, X, x, 0.535
74, 1078, X, w, 0.2
74, 1080, X, w, 0.2
74, 1082, X, w, 0.2
74, 1083, X, w, 0.2
74, 1084, X, x, 0.535
74, 1090, X, w, 0.2
74, 1093, X, x, 0.735
74, 1095, X, w, 0.2
74, 1098, X, w, 0.45
74, 1100, X, w, 0.2
74, 1106, X, w, 0.2
74, 1107, X, w, 0.2
74, 1108, X, w, 0.2
74, 1109, X, x, 0.535
74, 1110, X, w, 0.25
74, 1113, X, x, 0.62
74, 1118, X, x, 0.62
74, 1121, X, w, 0.2
74, 1123, X, w, 0.2
74, 1125, X, x, 0.735
74, 1128, X, w, 0.2
74, 1131, X, w, 0.2
74, 1133, X, w, 0.2
74, 1142, X, w, 0.45
74, 1144, X, x, 0.535
74, 1149, X, w, 0.2
74, 1154, X, w, 0.45
74, 1155, X, w, 0.2
74, 1164, X, w, 0.2
74, 1167, X, w, 0.2
74, 1169, X, w, 0.2
74, 1174, X, w, 0.2
74, 1180, X, x, 0.535
74, 1186, X, x, 0.735
74, 1187, X, w, 0.293
74, 1191, X, w, 0.2
74, 1192, X, w, 0.2
74, 1195, X, w, 0.2
74, 1200, X, w, 0.2
74, 1201, X, x, 0.535
74, 1203, X, w, 0.2
74, 1204, X, x, 0.621
74, 1207, X, w, 0.2
74, 1209, X, x, 0.735
74, 1210, X, w, 0.297
74, 1215, X, x, 0.535
74, 1216, X, w, 0.25
74, 1219, X, w, 0.2
74, 1220, X, x, 0.62
74, 1224, X, w, 0.45
74, 1232, X, w, 0.2
74, 1233, X, w, 0.2
74, 1234, X, w, 0.2
74, 1243, X, x, 0.535
74, 1245, X, x, 0.621
74, 1247, X, w, 0.2
74, 1248, X, w, 0.2
74, 1250, X, w, 0.2
74, 1252, X, w, 0.45
74, 1253, X, w, 0.2
74, 1254, X, w, 0.2
74, 1259, X, w, 0.2
74, 1263, X, x, 0.535
74, 1264, X, w, 0.25
74, 1266, X, w, 0.2
74, 1268, X, w, 0.2
74, 1271, X, w, 0.2
74, 1275, X, w, 0.2
74, 1276, X, w, 0.2
74, 1277, X, w, 0.2
74, 1281, X, w, 0.2
74, 1292, X, w, 0.2
74, 1298, X, w, 0.2
74, 1301, X, w, 0.2
74, 1303, X, w, 0.45
74, 1308, X, w, 0.45
74, 1310, X, x, 0.535
74, 1312, X, w, 0.2
74, 1316, X, w, 0.2
74, 1317, X, w, 0.2
74, 1319, X, w, 0.2
74, 1320, X, w, 0.2
74, 1322, X, w, 0.2
74, 1324, X, w, 0.2
74, 1326, X, w, 0.2
74, 1332, X, w, 0.45
74, 1335, X, w, 0.2
74, 1339, X, w, 0.2
74, 1341, X, w, 0.2
74, 1344, X, w, 0.2
74, 1346, X, w, 0.2
74, 1347, X, w, 0.2
74, 1349, X, w, 0.45
74, 1351, X, x, 0.535
74, 1358, X, w, 0.45
74, 1364, X, w, 0.2
74, 1365, X, w, 0.2
74, 1368, X, w, 0.2
74, 1369, X, w, 0.2
74, 1371, X, x, 0.535
74, 1372, X, x, 0.57
74, 1375, X, w, 0.2
74, 1376, X, x, 0.62
74, 1379, X, w, 0.2
