participant, trial, stimulus, response, rt
88, 4, X, w, 0.2
88, 6, X, x, 0.735
88, 7, X, w, 0.295
88, 9, X, w, 0.45
88, 15, X, x, 0.735
88, 19, X, x, 0.535
88, 23, X, w, 0.45
88, 25, X, x, 0.735
88, 31, X, x, 0.535
88, 39, X, w, 0.45
88, 40, X, w, 0.2
88, 41, X, w, 0.2
88, 42, X, w, 0.2
88, 43, X, w, 0.2
88, 45, X, x, 0.735
88, 50, X, x, 0.735
88, 51, X, w, 0.298
88, 55, X, x, 0.535
88, 56, X, w, 0.25
88, 59, X, x, 0.735
88, 67, X, x, 0.735
88, 71, X, w, 0.2
88, 72, X, x, 0.535
88, 75, X, x, 0.62
88, 76, X, w, 0.25
88, 77, X, w, 0.2
88, 80, X, x, 0.735
88, 82, X, w, 0.2
88, 84, X, w, 0.45
88, 88, X, w, 0.2
88, 90, X, w, 0.45
88, 91, X, x, 0.535
88, 92, X, w, 0.25
88, 95, X, x, 0.735
88, 98, X, w, 0.2
88, 99, X, w, 0.2
88, 102, X, w, 0.45
88, 106, X, x, 0.735
88, 107, X, w, 0.3
88, 108, X, w, 0.2
88, 110, X, x, 0.62
88, 111, X, w, 0.25
88, 113, X, x, 0.62
88, 114, X, x, 0.57
88, 121, X, x, 0.735
88, 123, X, x, 0.62
88, 124, X, x, 0.57
88, 130, X, x, 0.735
88, 132, X, w, 0.2
88, 136, X, x, 0.735
88, 137, X, w, 0.29
88, 140, X, x, 0.62
88, 141, X, w, 0.25
88, 144, X, w, 0.45
88, 145, X, x, 0.535
88, 146, X, x, 0.57
88, 149, X, w, 0.45
88, 150, X, w, 0.2
88, 151, X, x, 0.535
88, 154, X, x, 0.535
88, 156, X, w, 0.45
88, 158, X, x, 0.535
88, 159, X, w, 0.25
88, 161, X, x, 0.62
88, 164, X, x, 0.735
88, 167, X, x, 0.62
88, 168, X, x, 0.57
88, 169, X, x, 0.57
88, 171, X, x, 0.735
88, 172, X, w, 0.297
88, 175, X, x, 0.735
88, 178, X, w, 0.45
88, 179, X, x, 0.535
88, 182, X, x, 0.735
88, 183, X, w, 0.295
88, 184, X, w, 0.2
88, 185, X, x, 0.62
88, 186, X, x, 0.57
88, 189, X, x, 0.735
88, 191, X, w, 0.2
88, 192, X, w, 0.2
88, 193, X, w, 0.2
88, 195, X, x, 0.62
88, 197, X, w, 0.45
88, 198, X, w, 0.2
88, 199, X, w, 0.2
88, 209, X, x, 0.535
88, 214, X, w, 0.2
88, 215, X, x, 0.62
88, 217, X, w, 0.45
88, 218, X, w, 0.2
88, 220, X, w, 0.2
88, 221, X, x, 0.535
88, 223, X, w, 0.45
88, 227, X, w, 0.2
88, 228, X, x, 0.535
88, 230, X, x, 0.735
88, 233, X, x, 0.62
88, 235, X, x, 0.62
88, 236, X, w, 0.25
88, 238, X, w, 0.45
88, 240, X, w, 0.2
88, 243, X, x, 0.735
88, 246, X, w, 0.45
88, 249, X, x, 0.535
88, 251, X, w, 0.45
88, 256, X, w, 0.2
88, 260, X, w, 0.2
88, 265, X, x, 0.535
88, 266, X, w, 0.25
88, 271, X, w, 0.45
88, 272, X, x, 0.535
88, 274, X, w, 0.2
88, 280, X, w, 0.2
88, 283, X, w, 0.2
88, 284, X, w, 0.2
88, 286, X, x, 0.535
88, 287, X, w, 0.25
88, 289, X, x, 0.735
88, 293, X, w, 0.2
88, 294, X, x, 0.62
88, 303, X, x, 0.735
88, 304, X, w, 0.299
88, 305, X, x, 0.62
88, 306, X, x, 0.57
88, 308, X, w, 0.45
88, 314, X, x, 0.735
88, 315, X, w, 0.3
88, 317, X, w, 0.2
88, 319, X, w, 0.45
88, 324, X, x, 0.535
88, 332, X, w, 0.45
88, 338, X, w, 0.2
88, 339, X, x, 0.535
88, 342, X, w, 0.2
88, 344, X, x, 0.62
88, 346, X, w, 0.45
88, 348, X, w, 0.2
88, 362, X, w, 0.45
88, 363, X, w, 0.2
88, 368, X, x, 0.735
88, 369, X, w, 0.297
88, 371, X, w, 0.2
88, 373, X, x, 0.62
88, 374, X, x, 0.57
88, 375, X, w, 0.25
88, 384, X, w, 0.45
88, 389, X, w, 0.2
88, 393, X, x, 0.535
88, 394, X, x, 0.57
88, 396, X, w, 0.2
88, 397, X, w, 0.2
88, 398, X, w, 0.2
88, 402, X, x, 0.735
88, 412, X, w, 0.2
88, 413, X, w, 0.2
88, 416, X, w, 0.45
88, 417, X, x, 0.535
88, 422, X, x, 0.735
88, 424, X, w, 0.2
88, 425, X, x, 0.62
88, 426, X, w, 0.25
88, 430, X, w, 0.45
88, 431, X, w, 0.2
88, 433, X, x, 0.535
88, 437, X, w, 0.2
88, 438, X, x, 0.535
88, 439, X, w, 0.25
88, 440, X, w, 0.2
88, 449, X, x, 0.535
88, 450, X, w, 0.25
88, 452, X, w, 0.2
88, 455, X, x, 0.535
88, 457, X, w, 0.2
88, 458, X, x, 0.62
88, 467, X, w, 0.45
88, 469, X, x, 0.535
88, 472, X, x, 0.735
88, 473, X, w, 0.3
88, 477, X, w, 0.45
88, 478, X, w, 0.2
88, 479, X, w, 0.2
88, 483, X, x, 0.535
88, 485, X, x, 0.62
88, 488, X, x, 0.535
88, 494, X, w, 0.2
88, 501, X, x, 0.735
88, 502, X, w, 0.297
88, 503, X, w, 0.2
88, 509, X, x, 0.535
88, 511, X, w, 0.2
88, 513, X, w, 0.2
88, 517, X, x, 0.62
88, 519, X, w, 0.2
88, 520, X, x, 0.62
88, 524, X, w, 0.45
88, 526, X, w, 0.45
88, 527, X, w, 0.2
88, 528, X, w, 0.2
88, 529, X, w, 0.2
88, 536, X, x, 0.735
88, 538, X, x, 0.62
88, 541, X, w, 0.45
88, 542, X, w, 0.2
88, 543, X, x, 0.535
88, 551, X, w, 0.45
88, 553, X, w, 0.45
88, 565, X, w, 0.2
88, 571, X, x, 0.535
88, 572, X, w, 0.25
88, 573, X, x, 0.62
88, 575, X, x, 0.62
88, 576, X, w, 0.25
88, 577, X, x, 0.62
88, 578, X, w, 0.25
88, 581, X, w, 0.2
88, 583, X, w, 0.2
88, 585, X, w, 0.2
88, 589, X, w, 0.2
88, 590, X, w, 0.2
88, 592, X, x, 0.535
88, 595, X, w, 0.2
88, 601, X, w, 0.45
88, 606, X, w, 0.2
88, 607, X, w, 0.2
88, 608, X, w, 0.2
88, 611, X, x, 0.535
88, 615, X, x, 0.535
88, 616, X, w, 0.25
88, 617, X, w, 0.2
88, 622, X, w, 0.45
88, 623, X, w, 0.2
88, 625, X, w, 0.45
88, 626, X, w, 0.2
88, 631, X, w, 0.2
88, 634, X, x, 0.535
88, 638, X, w, 0.45
88, 641, X, x, 0.535
88, 644, X, w, 0.2
88, 647, X, w, 0.2
88, 654, X, w, 0.2
88, 656, X, x, 0.535
88, 658, X, w, 0.45
88, 662, X, w, 0.2
88, 666, X, x, 0.735
88, 669, X, w, 0.2
88, 670, X, w, 0.2
88, 671, X, w, 0.2
88, 676, X, w, 0.2
88, 677, X, w, 0.2
88, 678, X, w, 0.2
88, 679, X, x, 0.535
88, 681, X, x, 0.62
88, 682, X, w, 0.25
88, 687, X, w, 0.2
88, 689, X, w, 0.45
88, 691, X, w, 0.45
88, 692, X, w, 0.2
88, 693, X, w, 0.2
88, 694, X, w, 0.2
88, 695, X, w, 0.2
88, 701, X, x, 0.535
88, 711, X, w, 0.2
88, 714, X, w, 0.2
88, 715, X, w, 0.2
88, 718, X, w, 0.2
88, 721, X, x, 0.735
88, 726, X, w, 0.2
88, 732, X, w, 0.2
88, 740, X, x, 0.535
88, 744, X, w, 0.45
88, 747, X, w, 0.2
88, 752, X, w, 0.2
88, 755, X, w, 0.2
88, 758, X, w, 0.2
88, 759, X, w, 0.2
88, 760, X, w, 0.2
88, 761, X, x, 0.535
88, 768, X, w, 0.45
88, 769, X, w, 0.2
88, 770, X, x, 0.535
88, 775, X, w, 0.2
88, 776, X, w, 0.2
88, 777, X, w, 0.2
88, 780, X, x, 0.535
88, 781, X, w, 0.25
88, 785, X, w, 0.2
88, 801, X, w, 0.2
88, 802, X, w, 0.2
88, 806, X, x, 0.535
88, 809, X, x, 0.735
88, 810, X, w, 0.295
88, 812, X, w, 0.45
88, 816, X, w, 0.2
88, 819, X, x, 0.535
88, 822, X, w, 0.2
88, 824, X, w, 0.45
88, 826, X, w, 0.2
88, 833, X, w, 0.2
88, 839, X, w, 0.2
88, 840, X, w, 0.2
88, 847, X, w, 0.2
88, 852, X, x, 0.535
88, 857, X, w, 0.2
88, 859, X, x, 0.535
88, 860, X, w, 0.25
88, 862, X, w, 0.2
88, 866, X, x, 0.535
88, 867, X, w, 0.25
88, 868, X, w, 0.2
88, 869, X, w, 0.2
88, 871, X, w, 0.2
88, 873, X, w, 0.2
88, 874, X, w, 0.2
88, 878, X, w, 0.2
88, 880, X, w, 0.2
88, 882, X, x, 0.62
88, 884, X, x, 0.62
88, 885, X, x, 0.57
88, 893, X, x, 0.735
88, 900, X, x, 0.735
88, 907, X, x, 0.536
88, 911, X, w, 0.2
88, 917, X, w, 0.2
88, 918, X, w, 0.2
88, 920, X, w, 0.2
88, 921, X, w, 0.2
88, 925, X, x, 0.735
88, 927, X, w, 0.2
88, 931, X, w, 0.2
88, 934, X, w, 0.45
88, 938, X, x, 0.535
88, 940, X, x, 0.62
88, 941, X, w, 0.25
88, 952, X, w, 0.2
88, 954, X, w, 0.2
88, 955, X, w, 0.2
88, 956, X, w, 0.2
88, 957, X, w, 0.2
88, 961, X, w, 0.2
88, 962, X, w, 0.2
88, 963, X, w, 0.2
88, 965, X, w, 0.2
88, 966, X, x, 0.535
88, 970, X, w, 0.2
88, 972, X, w, 0.45
88, 973, X, x, 0.535
88, 974, X, w, 0.25
88, 978, X, w, 0.45
88, 979, X, w, 0.2
88, 981, X, x, 0.535
88, 982, X, w, 0.25
88, 983, X, x, 0.62
88, 985, X, w, 0.2
88, 988, X, w, 0.2
88, 990, X, x, 0.62
88, 996, X, w, 0.2
88, 997, X, x, 0.62
88, 998, X, w, 0.25
88, 1000, X, x, 0.62
88, 1003, X, x, 0.62
88, 1005, X, w, 0.45
88, 1007, X, x, 0.535
88, 1008, X, w, 0.25
88, 1012, X, w, 0.2
88, 1013, X, w, 0.2
88, 1019, X, w, 0.2
88, 1020, X, w, 0.2
88, 1021, X, w, 0.2
88, 1022, X, x, 0.62
88, 1028, X, w, 0.45
88, 1030, X, w, 0.2
88, 1031, X, x, 0.535
88, 1035, X, w, 0.2
88, 1047, X, w, 0.2
88, 1048, X, w, 0.2
88, 1052, X, w, 0.2
88, 1053, X, w, 0.2
88, 1055, X, w, 0.2
88, 1060, X, x, 0.535
88, 1071, X, w, 0.2
88, 1073, X, w, 0.2
88, 1075, X, x, 0.535
88, 1076, X, x, 0.57
88, 1078, X, w, 0.2
88, 1079, X, x, 0.62
88, 1081, X, w, 0.25
88, 1083, X, w, 0.2
88, 1088, X, x, 0.735
88, 1090, X, w, 0.2
88, 1094, X, w, 0.2
88, 1102, X, w, 0.2
88, 1106, X, x, 0.735
88, 1107, X, w, 0.297
88, 1109, X, x, 0.735
88, 1112, X, w, 0.45
88, 1113, X, w, 0.2
88, 1116, X, x, 0.735
88, 1119, X, w, 0.2
88, 1121, X, w, 0.2
88, 1122, X, x, 0.62
88, 1123, X, x, 0.57
88, 1126, X, w, 0.2
88, 1128, X, w, 0.45
88, 1137, X, x, 0.535
88, 1141, X, x, 0.535
88, 1142, X, w, 0.25
88, 1144, X, w, 0.45
88, 1154, X, w, 0.45
88, 1155, X, w, 0.2
88, 1158, X, w, 0.45
88, 1163, X, w, 0.45
88, 1165, X, w, 0.2
88, 1167, X, x, 0.535
88, 1169, X, x, 0.62
88, 1173, X, w, 0.2
88, 1177, X, x, 0.735
88, 1180, X, w, 0.45
88, 1184, X, x, 0.535
88, 1187, X, x, 0.736
88, 1191, X, w, 0.2
88, 1193, X, w, 0.2
88, 1199, X, w, 0.2
88, 1203, X, x, 0.535
88, 1204, X, x, 0.57
88, 1205, X, x, 0.57
88, 1206, X, w, 0.25
88, 1209, X, w, 0.2
88, 1210, X, w, 0.2
88, 1211, X, x, 0.62
88, 1213, X, w, 0.45
88, 1214, X, w, 0.2
88, 1220, X, w, 0.45
88, 1237, X, w, 0.45
88, 1239, X, w, 0.2
88, 1243, X, w, 0.2
88, 1245, X, w, 0.2
88, 1247, X, x, 0.535
88, 1250, X, w, 0.2
88, 1252, X, w, 0.45
88, 1253, X, w, 0.2
88, 1254, X, x, 0.535
88, 1255, X, w, 0.25
88, 1259, X, x, 0.735
88, 1266, X, w, 0.2
88, 1271, X, x, 0.735
88, 1272, X, w, 0.293
88, 1274, X, w, 0.2
88, 1280, X, w, 0.45
88, 1282, X, w, 0.2
88, 1283, X, w, 0.2
88, 1296, X, x, 0.535
88, 1297, X, w, 0.25
88, 1298, X, w, 0.2
88, 1299, X, x, 0.62
88, 1302, X, w, 0.45
88, 1303, X, w, 0.2
88, 1307, X, w, 0.2
88, 1309, X, w, 0.2
88, 1320, X, w, 0.2
88, 1322, X, w, 0.45
88, 1330, X, w, 0.2
88, 1333, X, w, 0.2
88, 1335, X, x, 0.735
88, 1336, X, w, 0.3
88, 1337, X, w, 0.2
88, 1338, X, w, 0.2
88, 1339, X, w, 0.2
88, 1346, X, w, 0.45
88, 1347, X, w, 0.2
88, 1354, X, w, 0.2
88, 1356, X, w, 0.2
88, 1358, X, w, 0.2
88, 1361, X, w, 0.2
88, 1362, X, w, 0.2
88, 1363, X, w, 0.2
88, 1365, X, w, 0.2
88, 1371, X, w, 0.2
88, 1374, X, x, 0.535
88, 1375, X, x, 0.57
